loggingTime(txt),locationTimestamp_since1970(s),locationLatitude(WGS84),locationLongitude(WGS84),locationAltitude(m),locationSpeed(m/s),locationCourse(°),locationVerticalAccuracy(m),locationHorizontalAccuracy(m),locationFloor(Z),locationHeadingTimestamp_since1970(s),locationHeadingX(µT),locationHeadingY(µT),locationHeadingZ(µT),locationTrueHeading(°),locationMagneticHeading(°),locationHeadingAccuracy(°),accelerometerTimestamp_sinceReboot(s),accelerometerAccelerationX(G),accelerometerAccelerationY(G),accelerometerAccelerationZ(G),gyroTimestamp_sinceReboot(s),gyroRotationX(rad/s),gyroRotationY(rad/s),gyroRotationZ(rad/s),motionTimestamp_sinceReboot(s),motionYaw(rad),motionRoll(rad),motionPitch(rad),motionRotationRateX(rad/s),motionRotationRateY(rad/s),motionRotationRateZ(rad/s),motionUserAccelerationX(G),motionUserAccelerationY(G),motionUserAccelerationZ(G),motionAttitudeReferenceFrame(txt),motionQuaternionX(R),motionQuaternionY(R),motionQuaternionZ(R),motionQuaternionW(R),motionGravityX(G),motionGravityY(G),motionGravityZ(G),motionMagneticFieldX(µT),motionMagneticFieldY(µT),motionMagneticFieldZ(µT),motionMagneticFieldCalibrationAccuracy(Z),activityTimestamp_sinceReboot(s),activity(txt),activityActivityConfidence(Z),activityActivityStartDate(txt),deviceOrientation(Z)
2018-04-08 10:31:37.097,1523201495.999192,30.32761344474721,-97.75601718861044,209.261,27.825440000000004,181.3503723144531,3.0,8.0,-9999,1523201496.987935,-1735.7979736328118,-1362.923217773438,-1464.6895751953118,271.1911010742188,267.3582763671875,10,213307.51425225,0.9683837890625,0.0015869140625,-0.0167388916015625,213307.51425225,-0.02312209721628596,-0.0217923808840094,0.00774393981773241,213307.49550125,2.324352481014178,1.5641842227212501,-0.02687634978259239,-0.009719440713524818,-0.00718096550554037,0.005396711174398661,-0.04112052917480469,0.004361629486083984,-0.024884521961212158,XArbitraryCorrectedZVertical,-0.6504715085029602,0.271259993314743,0.6472103595733643,0.2905566692352295,0.9996166229248048,0.026873113587498658,-0.006609665229916573,0,0,0,-1,213262.33090175,automotive,2,2018-04-08 10:30:51.912 -0500,4
2018-04-08 10:31:37.197,1523201496.999192,30.327359362489556,-97.756024093036,208.8823,27.79601,181.3503723144531,3.0,8.0,-9999,1523201497.1127949,-1735.7293701171882,-1363.257934570312,-1462.6341552734382,271.17868041992193,267.34585571289057,10,213307.61425625,0.9167633056640624,-0.0082244873046875,0.0447998046875,213307.61425625,-0.02308667717378791,-0.044662543061173864,0.0153461994654726,213307.59550525,2.32442974218323,1.5638485825148312,-0.02704140042456681,0.01050907839089632,-0.1411331444978714,0.042293433099985116,0.1653677821159363,0.0127568244934082,-0.143125057220459,XArbitraryCorrectedZVertical,-0.6503958702087402,0.2711321413516998,0.6473070979118347,0.2906304001808167,0.9996101856231688,0.02703810483217239,-0.0069451481103897095,0,0,0,-1,213262.33090175,automotive,2,2018-04-08 10:30:51.912 -0500,4
2018-04-08 10:31:37.297,1523201496.999192,30.327359362489556,-97.756024093036,208.8823,27.79601,181.3503723144531,3.0,8.0,-9999,1523201497.212863,-1735.4736328125,-1364.708740234375,-1467.4285888671882,271.19931030273443,267.36648559570307,10,213307.71426025,1.09033203125,0.060638427734375,-0.128509521484375,213307.71426025,0.01269821839360682,-0.07947511851458065,0.04206462941780157,213307.69550925,2.324291805792013,1.5648126140301193,-0.02653590511648167,0.0008025113493204117,-0.06050869822502136,0.0462820902466774,0.1150249242782593,0.001299262046813965,-0.1175078153610229,XArbitraryCorrectedZVertical,-0.6506201028823853,0.2714824080467224,0.6470462679862976,0.2903815507888794,0.9996295571327208,0.026532791554927833,-0.005981567781418562,0,0,0,-1,213262.33090175,automotive,2,2018-04-08 10:30:51.912 -0500,4
2018-04-08 10:31:37.397,1523201496.999192,30.327359362489556,-97.756024093036,208.8823,27.79601,181.3503723144531,3.0,8.0,-9999,1523201497.312899,-1735.796142578125,-1362.889892578125,-1462.07861328125,271.1956176757812,267.36279296875,10,213307.81426425,1.09716796875,0.0089111328125,-0.11920166015625,213307.81426425,0.003156911156179929,-0.04135942436114858,0.03231186718982239,213307.79551425,2.324246063895882,1.5669469667095433,-0.02461108946851344,0.00788429006934166,0.04517690092325211,0.04684500768780708,0.038808286190032966,0.01398089528083801,-0.02663886547088623,XArbitraryCorrectedZVertical,-0.6510410308837891,0.2724362015724182,0.6466230154037476,0.2894868552684784,0.9996896386146544,0.02460860460996628,-0.003848184365779161,0,0,0,-1,213262.33090175,automotive,2,2018-04-08 10:30:51.912 -0500,4
2018-04-08 10:31:37.498,1523201496.999192,30.327359362489556,-97.756024093036,208.8823,27.79601,181.3503723144531,3.0,8.0,-9999,1523201497.4129999,-1735.77734375,-1362.999755859375,-1462.607666015625,271.1970825195312,267.3642578125,10,213307.91426825,1.042236328125,-0.0510406494140625,-0.062347412109375,213307.91426825,-0.02215563605669621,0.04898831561978957,-0.02258067656667285,213307.89551825,2.3242600160906477,1.5675349798596618,-0.02395365350195621,-0.0002903500571846962,0.04835051298141479,-0.027064429596066468,0.001467108726501465,-0.01862606406211853,-0.007832705974578856,XArbitraryCorrectedZVertical,-0.6511430740356445,0.2727315425872803,0.6465284824371338,0.2891905009746552,0.9997078180313109,0.02395136281847954,-0.003260405734181404,0,0,0,-1,213262.33090175,automotive,2,2018-04-08 10:30:51.912 -0500,4
2018-04-08 10:31:37.597,1523201496.999192,30.327359362489556,-97.756024093036,208.8823,27.79601,181.3503723144531,3.0,8.0,-9999,1523201497.537806,-1735.7755126953118,-1363.007934570312,-1462.492919921875,271.19345092773443,267.36062622070307,10,213308.01427325,1.00311279296875,0.0072174072265625,-0.031341552734375,213308.01427325,-0.014864699940386281,0.1023535364911244,-0.042151981101556164,213307.99552225,2.324202483278838,1.569133612209315,-0.02563538492870724,-0.0045331818982958785,0.0962519869208336,-0.054036665707826614,-0.02118486166000366,-0.04050987958908081,0.02484029531478882,XArbitraryCorrectedZVertical,-0.6518815159797668,0.2724323868751526,0.6457566022872925,0.2895331382751465,0.9996699690818788,0.02563257701694965,-0.001662167371250689,0,0,0,-1,213262.33090175,automotive,2,2018-04-08 10:30:51.912 -0500,4
2018-04-08 10:31:37.697,1523201496.999192,30.327359362489556,-97.756024093036,208.8823,27.79601,181.3503723144531,3.0,8.0,-9999,1523201497.6379712,-1735.8331298828118,-1362.702758789062,-1462.7464599609382,271.1974487304688,267.3646240234375,10,213308.11427725,1.01409912109375,0.0792999267578125,-0.0231475830078125,213308.11427725,-0.001396827991746561,0.1862479045185825,-0.04582261603201238,213308.09552625,2.324192434551214,1.5702554641613502,-0.02836730573838012,-0.00047868676483631134,0.1583514362573624,-0.0575510561466217,-0.093072772026062,0.0013301074504852288,0.07900130748748779,XArbitraryCorrectedZVertical,-0.6526142358779907,0.2717063426971436,0.6449936628341675,0.2902643084526062,0.9995973706245422,0.028363501653075218,-0.0005406449199654162,0,0,0,-1,213262.33090175,automotive,2,2018-04-08 10:30:51.912 -0500,4
2018-04-08 10:31:37.797,1523201496.999192,30.327359362489556,-97.756024093036,208.8823,27.79601,181.3503723144531,3.0,8.0,-9999,1523201497.763193,-1735.973388671875,-1361.876708984375,-1458.25048828125,271.1900024414062,267.357177734375,10,213308.21428125,0.8534393310546875,0.0473480224609375,0.0801849365234375,213308.21428125,-0.04315785704527909,0.08814503944333361,-0.06655798827936933,213308.19553025,2.324371587894424,1.5705550607432253,-0.029026621797756738,-0.02340114861726761,0.07879975438117981,-0.062413372099399574,-0.1443538069725037,-0.037506431341171265,0.1203278303146362,XArbitraryCorrectedZVertical,-0.6528247594833374,0.2714760601520538,0.6448261141777039,0.2903782725334167,0.9995784163475036,0.029022546485066414,-0.0002411643363302574,0,0,0,-1,213262.33090175,automotive,2,2018-04-08 10:30:51.912 -0500,4
2018-04-08 10:31:37.897,1523201496.999192,30.327359362489556,-97.756024093036,208.8823,27.79601,181.3503723144531,3.0,8.0,-9999,1523201497.8635821,-1735.6302490234382,-1363.817260742188,-1464.3133544921882,271.21200561523443,267.37918090820307,10,213308.31428525,0.85687255859375,0.0320281982421875,0.0618133544921875,213308.31428525,-0.04508651830671448,-0.01205666288700673,-0.03931225243120468,213308.29553525,2.3244422865564482,1.5694023103375891,-0.029202889569881037,-0.0240426491945982,-0.1107383146882057,-0.03371180966496468,-0.0281674861907959,0.03214159607887268,-0.06542479991912843,XArbitraryCorrectedZVertical,-0.6524865031242371,0.2712280452251434,0.6451870799064636,0.2905687689781189,0.9995725154876708,0.029198739677667618,-0.001393421436659992,0,0,0,-1,213262.33090175,automotive,2,2018-04-08 10:30:51.912 -0500,4
2018-04-08 10:31:38.000,1523201496.999192,30.327359362489556,-97.756024093036,208.8823,27.79601,181.3503723144531,3.0,8.0,-9999,1523201497.9879642,-1735.6334228515618,-1363.737915039062,-1462.1673583984382,271.22518920898443,267.39236450195307,10,213308.41429025,0.964752197265625,0.0258636474609375,-0.033905029296875,213308.41429025,0.005479986575056049,-0.07953211016190835,-0.0007550061690374642,213308.39553925,2.3241636697875228,1.5692585193202258,-0.029878113087917237,0.008290519937872887,-0.0605480968952179,0.011944144964218141,0.07643622159957886,0.004504382610321045,-0.1142771244049072,XArbitraryCorrectedZVertical,-0.6524940133094788,0.2710774838924408,0.6450955867767334,0.2908957302570343,0.999552607536316,0.029873667284846313,-0.00153712066821754,0,0,0,-1,213262.33090175,automotive,2,2018-04-08 10:30:51.912 -0500,4
2018-04-08 10:31:38.097,1523201496.999192,30.327359362489556,-97.756024093036,208.8823,27.79601,181.3503723144531,3.0,8.0,-9999,1523201497.9879642,-1735.6334228515618,-1363.737915039062,-1462.1673583984382,271.22518920898443,267.39236450195307,10,213308.514294125,0.9808502197265624,0.0444488525390625,-0.094390869140625,213308.514294125,-0.0008884305396504338,-0.06101248794149732,0.0002751045406051853,213308.495543125,2.32397713826842,1.5681736076797768,-0.030946743305499368,-0.002233684062957764,-0.051845956593751914,0.0044682309962809095,0.01821297407150269,-0.044628947973251336,-0.09088438749313353,XArbitraryCorrectedZVertical,-0.6522638201713562,0.2706310749053955,0.6452670097351074,0.2914468050003052,0.9995177984237672,0.03094180300831795,-0.002621460473164916,0,0,0,-1,213262.33090175,automotive,2,2018-04-08 10:30:51.912 -0500,4
2018-04-08 10:31:38.197,1523201497.999191,30.32711354203984,-97.75603077295534,208.5201,27.79601,181.3503723144531,3.0,8.0,-9999,1523201498.112868,-1735.7139892578118,-1363.356811523438,-1465.306640625,271.24447631835943,267.41165161132807,10,213308.614298125,1.027786254882812,0.0554962158203125,-0.1213531494140625,213308.614298125,0.007296528754599097,2.9028455881863696e-05,0.02031485911123344,213308.595547125,2.3235818521222216,1.566583193119972,-0.03162738696221815,0.000473562628030777,0.09525754302740096,0.01987744867801666,-0.1244757175445557,0.01357442140579224,-0.00015300512313842768,XArbitraryCorrectedZVertical,-0.6517894864082336,0.2703053057193756,0.6456288695335388,0.2920083403587341,0.9994910359382628,0.03162211552262306,-0.00421101413667202,0,0,0,-1,213262.33090175,automotive,2,2018-04-08 10:30:51.912 -0500,4
2018-04-08 10:31:38.297,1523201497.999191,30.32711354203984,-97.75603077295534,208.5201,27.79601,181.3503723144531,3.0,8.0,-9999,1523201498.212873,-1735.756103515625,-1363.115600585938,-1464.37548828125,271.2506103515625,267.4177856445312,10,213308.714302125,0.96844482421875,-0.0259857177734375,-0.0161285400390625,213308.714302125,-0.035675173330483465,-0.05447975378753296,0.01118261341724272,213308.695552125,2.323561326120064,1.56513030707885,-0.030467866178208337,0.003045742399990559,-0.044230207800865166,-0.006314874161034822,0.006843209266662598,0.008172094821929932,-0.09368664026260376,XArbitraryCorrectedZVertical,-0.6511598825454712,0.2704794406890869,0.6462675333023071,0.2918387055397034,0.9995197057724,0.030463151633739468,-0.005663359072059393,0,0,0,-1,213262.33090175,automotive,2,2018-04-08 10:30:51.912 -0500,4
2018-04-08 10:31:38.397,1523201497.999191,30.32711354203984,-97.75603077295534,208.5201,27.79601,181.3503723144531,3.0,8.0,-9999,1523201498.313072,-1735.7271728515618,-1363.267700195312,-1464.1859130859382,271.26461791992193,267.43179321289057,10,213308.814307125,0.9909210205078124,0.0061187744140625,-0.0554046630859375,213308.814307125,-0.01788179513933704,-0.01633955855207216,0.009829993899591476,213308.795556125,2.3234297885985993,1.565256996889816,-0.02906281492677354,-0.003380747511982918,-0.02024750038981438,0.006476484704762697,0.04264360666275024,-0.045583993196487434,-0.08723646402359009,XArbitraryCorrectedZVertical,-0.650991678237915,0.2710006535053253,0.6464108824729919,0.2914125323295593,0.9995622038841248,0.02905872464179993,-0.005536961369216442,0,0,0,-1,213262.33090175,automotive,2,2018-04-08 10:30:51.912 -0500,4
2018-04-08 10:31:38.497,1523201497.999191,30.32711354203984,-97.75603077295534,208.5201,27.79601,181.3503723144531,3.0,8.0,-9999,1523201498.437917,-1735.478515625,-1364.618408203125,-1465.1929931640618,271.2745361328125,267.4417114257812,10,213308.914311125,1.104934692382812,0.01025390625,-0.1653594970703125,213308.914311125,0.02200596640343375,-0.01410436744916865,0.03850211882760257,213308.895560125,2.323289763860448,1.56535902563792,-0.02815674598970995,0.0163034163415432,0.05715445801615715,0.037091556936502464,0.01393032073974609,-0.0007787346839904785,-0.07723701000213623,XArbitraryCorrectedZVertical,-0.6508820652961731,0.2713576555252075,0.6464887261390686,0.2911528646945953,0.9995889663696288,0.02815302647650242,-0.0054351198486983785,0,0,0,-1,213262.33090175,automotive,2,2018-04-08 10:30:51.912 -0500,4
2018-04-08 10:31:38.597,1523201497.999191,30.32711354203984,-97.75603077295534,208.5201,27.79601,181.3503723144531,3.0,8.0,-9999,1523201498.5379689,-1735.751220703125,-1363.088989257812,-1461.1534423828118,271.27029418945307,267.43746948242193,10,213309.014315125,1.046340942382812,-0.0254669189453125,-0.132568359375,213309.014315125,0.014420484670561059,0.100257362397123,0.01232564215710473,213308.995565125,2.323194799248268,1.565070516258424,-0.027162110431556467,0.02467898651957512,0.1246586367487907,-0.002910938579589128,-0.06815725564956665,-0.019254714250564582,0.0009934306144714355,XArbitraryCorrectedZVertical,-0.650640070438385,0.2716719806194305,0.6467127203941345,0.2909029424190521,0.9996147751808168,0.02715877071022987,-0.005723667331039906,0,0,0,-1,213262.33090175,automotive,2,2018-04-08 10:30:51.912 -0500,4
2018-04-08 10:31:38.697,1523201497.999191,30.32711354203984,-97.75603077295534,208.5201,27.79601,181.3503723144531,3.0,8.0,-9999,1523201498.6629028,-1735.4947509765618,-1364.5283203125,-1465.01806640625,271.2811279296875,267.4483032226562,10,213309.114320125,1.029190063476562,-0.0121917724609375,-0.083984375,213309.114320125,0.007203850748664339,0.1023767059926081,-0.03264689285495435,213309.095569125,2.3231237370811995,1.5645904074816308,-0.02732602816903191,0.01649601757526398,0.09844694286584854,-0.05096864700317383,-0.0989263653755188,-0.01558864116668701,0.005135476589202881,XArbitraryCorrectedZVertical,-0.6504976153373718,0.2715714871883392,0.6468345522880554,0.2910435497760773,0.9996069073677064,0.027322627604007717,-0.006203559692949057,0,0,0,-1,213262.33090175,automotive,2,2018-04-08 10:30:51.912 -0500,4
2018-04-08 10:31:38.797,1523201497.999191,30.32711354203984,-97.75603077295534,208.5201,27.79601,181.3503723144531,3.0,8.0,-9999,1523201498.762987,-1735.6722412109382,-1363.594360351562,-1466.1722412109382,271.28146362304693,267.44863891601557,10,213309.214324125,0.92572021484375,0.0110931396484375,-0.00640869140625,213309.214324125,-0.02944364269580705,0.04024861987047654,-0.038570562067617616,213309.195573125,2.323229609845376,1.5641481979139669,-0.02839985500339756,-0.02022401429712772,0.042875446379184716,-0.04084503650665283,-0.097153902053833,-0.008803725242614746,0.02285021543502808,XArbitraryCorrectedZVertical,-0.6505156755447388,0.2711211144924164,0.6468382477760315,0.2914142310619354,0.9995739459991456,0.02839603833854198,-0.006645394489169121,0,0,0,-1,213262.33090175,automotive,2,2018-04-08 10:30:51.912 -0500,4
2018-04-08 10:31:38.897,1523201497.999191,30.32711354203984,-97.75603077295534,208.5201,27.79601,181.3503723144531,3.0,8.0,-9999,1523201498.8879519,-1735.7857666015618,-1363.019409179688,-1468.2518310546882,271.29751586914057,267.46469116210943,10,213309.314328125,0.89990234375,0.06048583984375,-0.0211334228515625,213309.314328125,-0.038829421325573314,-0.03489033975723711,-0.004958539633618534,213309.295578125,2.3232275808425,1.562195807382374,-0.028521385364531963,-0.02854251489043236,-0.03553357720375061,-0.0093704042956233,-0.04638481140136719,0.00534173846244812,-0.04784536361694336,XArbitraryCorrectedZVertical,-0.6499002575874329,0.2707973420619965,0.647455096244812,0.2917184233665466,0.9995555877685548,0.028517518192529682,-0.00859690923243761,0,0,0,-1,213262.33090175,automotive,2,2018-04-08 10:30:51.912 -0500,4
2018-04-08 10:31:38.997,1523201497.999191,30.32711354203984,-97.75603077295534,208.5201,27.79601,181.3503723144531,3.0,8.0,-9999,1523201498.8879519,-1735.7857666015618,-1363.019409179688,-1468.2518310546882,271.29751586914057,267.46469116210943,10,213309.414333125,1.08935546875,0.09771728515625,-0.16119384765625,213309.414333125,0.01123667558737133,0.07958457443538293,0.03601312847281452,213309.395582125,2.3231391089705458,1.562245266464113,-0.025877040949860118,0.01734558865427971,0.07130862027406693,0.02844678238034248,0.001744627952575684,0.06999680399894714,-0.0964781641960144,XArbitraryCorrectedZVertical,-0.6495422720909119,0.2716998159885406,0.6478086113929749,0.2908918559551239,0.9996286630630492,0.02587415277957916,-0.00854809395968914,0,0,0,-1,213262.33090175,automotive,2,2018-04-08 10:30:51.912 -0500,4
2018-04-08 10:31:39.097,1523201497.999191,30.32711354203984,-97.75603077295534,208.5201,27.79601,181.3503723144531,3.0,8.0,-9999,1523201499.012903,-1735.473388671875,-1364.322875976562,-1460.802978515625,271.2907104492188,267.4578857421875,10,213309.5143371667,1.038726806640625,-0.012237548828125,-0.0482177734375,213309.5143371667,-0.007791344085135819,0.1590618234788356,-0.001724929438044323,213309.4955861667,2.3231661604168035,1.5660828526190511,-0.0209339330868872,-0.0007086256518959999,0.1421069204807281,0.01967332884669304,-0.03457450866699219,0.043719083070755,0.049588561058044434,XArbitraryCorrectedZVertical,-0.650109589099884,0.273863673210144,0.6472771763801575,0.2887696325778961,0.9997692108154296,0.02093240432441235,-0.0047124214470386505,0,0,0,-1,213262.33090175,automotive,2,2018-04-08 10:30:51.912 -0500,4
2018-04-08 10:31:39.197,1523201498.999192,30.326875163824376,-97.7560362582498,208.2304,27.40101,180.7065124511719,3.0,8.0,-9999,1523201499.113051,-1735.6318359375,-1363.484375,-1461.5169677734382,271.2894897460938,267.4566650390625,10,213309.6143411667,0.889892578125,-0.0114898681640625,0.0248870849609375,213309.6143411667,-0.029590116555761412,0.09472357996804737,-0.03881024656572474,213309.59559116673,2.3231849717026734,1.567171745131051,-0.0165721873588653,-0.03946999087929726,0.1137230098247528,-0.009962210431694984,-0.1427839994430542,-0.04359474778175354,0.1140976548194885,XArbitraryCorrectedZVertical,-0.6498631238937378,0.2754376232624054,0.6475512385368347,0.287207692861557,0.9998549222946168,0.01657142862677574,-0.0036240718327462673,0,0,0,-1,213262.33090175,automotive,2,2018-04-08 10:30:51.912 -0500,4
2018-04-08 10:31:39.297,1523201498.999192,30.326875163824376,-97.7560362582498,208.2304,27.40101,180.7065124511719,3.0,8.0,-9999,1523201499.238004,-1735.51611328125,-1364.185302734375,-1466.4033203125,271.2676391601562,267.434814453125,10,213309.71434616673,0.9136962890625,0.02825927734375,0.0066986083984375,213309.71434616673,-0.04401672649682965,-0.00879695371274974,-0.0468348835623515,213309.69559516673,2.323620688096645,1.565737915337025,-0.01599601111920231,-0.030417159199714664,-0.0660935565829277,-0.052090153098106384,-0.07229113578796388,0.031993567943573,-0.0609365701675415,XArbitraryCorrectedZVertical,-0.6493790149688721,0.2752780914306641,0.6481616497039795,0.2870779037475586,0.9998576641082764,0.01599532924592495,-0.005057734437286854,0,0,0,-1,213262.33090175,automotive,2,2018-04-08 10:30:51.912 -0500,4
2018-04-08 10:31:39.397,1523201498.999192,30.326875163824376,-97.7560362582498,208.2304,27.40101,180.7065124511719,3.0,8.0,-9999,1523201499.338026,-1735.528564453125,-1364.13916015625,-1467.689453125,271.2328491210938,267.4000244140625,10,213309.8143501667,0.9270477294921876,0.011199951171875,0.020751953125,213309.8143501667,-0.05450878224341482,-0.025140773322566017,-0.04348143111772372,213309.79560016672,2.3242540792137434,1.56587522790573,-0.01777433447594047,-0.0166907049715519,-0.08895983546972275,-0.04779241606593132,0.05206727981567383,0.02756047248840332,-0.07064127922058105,XArbitraryCorrectedZVertical,-0.6497563123703003,0.2745115458965302,0.6479535698890686,0.2874268889427185,0.9998278617858888,0.017773399129509933,-0.004920291248708963,0,0,0,-1,213262.33090175,automotive,2,2018-04-08 10:30:51.912 -0500,4
2018-04-08 10:31:39.497,1523201498.999192,30.326875163824376,-97.7560362582498,208.2304,27.40101,180.7065124511719,3.0,8.0,-9999,1523201499.438059,-1735.7427978515618,-1362.975830078125,-1466.8155517578118,271.1952514648438,267.3624267578125,10,213309.91435516672,0.95184326171875,0.074859619140625,-0.0230712890625,213309.91435516672,-0.015358716322595969,-0.1275100224641219,-0.02398735825445271,213309.89560416673,2.324566088980649,1.5657463466879757,-0.0201325911019948,-0.004019434563815594,-0.149921640753746,-0.01223861332982779,0.1078682541847229,-0.06464111804962157,-0.1311357617378235,XArbitraryCorrectedZVertical,-0.6500821709632874,0.2736214697360992,0.6477026343345642,0.2881035208702087,0.9997825026512146,0.020131230354309082,-0.005048924591392279,0,0,0,-1,213262.33090175,automotive,2,2018-04-08 10:30:51.912 -0500,4
2018-04-08 10:31:39.597,1523201498.999192,30.326875163824376,-97.7560362582498,208.2304,27.40101,180.7065124511719,3.0,8.0,-9999,1523201499.563007,-1736.2889404296882,-1360.025634765625,-1465.694580078125,271.1744995117188,267.3416748046875,10,213310.01435916673,0.9993438720703124,0.0869598388671875,-0.1152801513671875,213310.01435916673,0.003658118073332842,-0.1460299110006419,-0.03045564391003716,213309.99560816673,2.32457936268997,1.564210221147589,-0.023585858715910242,0.018064562231302258,-0.1390194594860077,-0.01564133539795876,0.016568779945373542,-0.05239227414131165,-0.1624984741210938,XArbitraryCorrectedZVertical,-0.650060772895813,0.2722662091255188,0.647707462310791,0.2894201576709747,0.9996970891952516,0.0235836710780859,-0.006584205664694309,0,0,0,-1,213262.33090175,automotive,2,2018-04-08 10:30:51.912 -0500,4
2018-04-08 10:31:39.697,1523201498.999192,30.326875163824376,-97.7560362582498,208.2304,27.40101,180.7065124511719,3.0,8.0,-9999,1523201499.663025,-1735.4854736328118,-1364.293823242188,-1463.0030517578118,271.1575317382812,267.32470703125,10,213310.11436416671,0.98797607421875,0.010589599609375,-0.135284423828125,213310.11436416671,0.003196059624204094,-0.003277552353560519,-0.00857884081947225,213310.09561316672,2.324585356382304,1.561830681627905,-0.02830807086901341,0.038864344358444214,-0.0159243643283844,-0.03989366069436073,0.02281349897384644,-0.014922320842742918,-0.1204326152801514,XArbitraryCorrectedZVertical,-0.649936854839325,0.27037221193313604,0.6478010416030884,0.2912583649158478,0.9995558857917786,0.02830429002642632,-0.008961903862655163,0,0,0,-1,213262.33090175,automotive,2,2018-04-08 10:30:51.912 -0500,4
2018-04-08 10:31:39.800,1523201498.999192,30.326875163824376,-97.7560362582498,208.2304,27.40101,180.7065124511719,3.0,8.0,-9999,1523201499.7631938,-1735.3931884765618,-1364.808227539062,-1464.1446533203118,271.1434326171875,267.3106079101562,10,213310.21436816672,1.040115356445312,0.117919921875,-0.1322784423828125,213310.21436816672,0.01478666932044695,-0.005453354964155256,-0.010785802414820909,213310.19561716673,2.324673590603617,1.561133132708646,-0.031883078771165786,-0.003516010008752346,0.05490406975150108,-0.013144387863576409,-0.02100300788879395,-0.04545798897743225,-0.0346686840057373,XArbitraryCorrectedZVertical,-0.6502097845077515,0.26906910538673395,0.6475237011909485,0.2924709320068359,0.9994422793388368,0.03187767788767815,-0.009658105671405792,0,0,0,-1,213262.33090175,automotive,2,2018-04-08 10:30:51.912 -0500,4
2018-04-08 10:31:39.897,1523201498.999192,30.326875163824376,-97.7560362582498,208.2304,27.40101,180.7065124511719,3.0,8.0,-9999,1523201499.887969,-1735.5648193359382,-1363.890869140625,-1464.4013671875,271.12722778320307,267.29440307617193,10,213310.3143731667,0.9944610595703124,0.1038665771484375,-0.054046630859375,213310.3143731667,0.002953445648897875,0.08279687934223649,-0.0057425742585378615,213310.2956221667,2.3245295835962287,1.56124572843867,-0.03169863212028343,0.01215877942740917,0.06039450690150261,0.01459378283470869,0.010743260383605959,-0.01678550243377686,-0.06526821851730348,XArbitraryCorrectedZVertical,-0.6502017378807068,0.269193023443222,0.6474930047988892,0.2924434840679169,0.9994496703147888,0.03169332444667816,-0.009545632638037205,0,0,0,-1,213262.33090175,automotive,2,2018-04-08 10:30:51.912 -0500,4
2018-04-08 10:31:39.997,1523201498.999192,30.326875163824376,-97.7560362582498,208.2304,27.40101,180.7065124511719,3.0,8.0,-9999,1523201499.988008,-1735.7578125,-1363.082641601562,-1464.5618896484382,271.12869262695307,267.29586791992193,10,213310.41437716671,0.9410400390625,0.037200927734375,0.0398712158203125,213310.41437716671,-0.038974829921091636,0.0413532990906414,-0.02244059429333468,213310.39562616672,2.3246192516913156,1.5616074020957547,-0.030343823832811118,-0.04035092890262604,0.03964646533131599,-0.0021299368236213923,-0.05549436807632446,-0.01149457693099976,0.04063290357589722,XArbitraryCorrectedZVertical,-0.6501466035842896,0.2696611285209656,0.6475844979286194,0.2919310033321381,0.9994946122169496,0.03033916838467121,-0.009184539318084715,0,0,0,-1,213262.33090175,automotive,2,2018-04-08 10:30:51.912 -0500,4
2018-04-08 10:31:40.097,1523201498.999192,30.326875163824376,-97.7560362582498,208.2304,27.40101,180.7065124511719,3.0,8.0,-9999,1523201500.088011,-1735.595458984375,-1363.99951171875,-1467.36083984375,271.1072387695312,267.2744140625,10,213310.51438225,0.8913116455078125,0.04150390625,0.0199737548828125,213310.51438225,-0.030436469150188588,-0.03596492525708408,0.003566239015725108,213310.49563125,2.324875152683695,1.561788462844541,-0.02803292820842135,-0.01703697070479393,-0.0398557074368,0.0130738690495491,-0.05293953418731689,-0.0005634129047393799,-0.01644748449325562,XArbitraryCorrectedZVertical,-0.6499246954917908,0.2703623473644257,0.6478972434997559,0.2910824120044708,0.999564290046692,0.02802925743162632,-0.009004182182252407,0,0,0,-1,213262.33090175,automotive,2,2018-04-08 10:30:51.912 -0500,4
2018-04-08 10:31:40.197,1523201499.99919,30.32663766254495,-97.75603963157322,207.9985,27.20267,180.7065124511719,3.0,8.0,-9999,1523201500.088011,-1735.595458984375,-1363.99951171875,-1467.36083984375,271.1072387695312,267.2744140625,10,213310.61438625,0.8824462890625,0.037078857421875,0.01483154296875,213310.61438625,-0.04179245435439547,-0.1307452305563501,0.01370143117623967,213310.59563525,2.325190921943275,1.5597389762655147,-0.02682113787080928,-0.004054085351526736,-0.1586168110370636,0.0038718816358596095,-0.026356041431427002,-0.006630539894104004,-0.09617042541503906,XArbitraryCorrectedZVertical,-0.6491374373435974,0.270359069108963,0.6487833857536316,0.2908681929111481,0.9995768666267396,0.0268179215490818,-0.01105312258005142,0,0,0,-1,213262.33090175,automotive,2,2018-04-08 10:30:51.912 -0500,4
2018-04-08 10:31:40.297,1523201499.99919,30.32663766254495,-97.75603963157322,207.9985,27.20267,180.7065124511719,3.0,8.0,-9999,1523201500.213017,-1735.517333984375,-1364.431030273438,-1468.0711669921882,271.0908203125,267.2579956054688,10,213310.71439125,1.001541137695312,0.0442047119140625,-0.095916748046875,213310.71439125,-0.03036190063966637,-0.06646823975063366,0.005843774379960872,213310.69564025,2.325424027162745,1.558085702628031,-0.02691739434167514,-0.02433536201715469,-0.0779799148440361,0.02293315716087818,0.08821415901184082,-0.05637887120246887,-0.1177874803543091,XArbitraryCorrectedZVertical,-0.6486455798149109,0.2700112760066986,0.6493397355079651,0.2910466492176056,0.9995544552803041,0.026914143934845917,-0.012705645523965359,0,0,0,-1,213262.33090175,automotive,2,2018-04-08 10:30:51.912 -0500,4
2018-04-08 10:31:40.397,1523201499.99919,30.32663766254495,-97.75603963157322,207.9985,27.20267,180.7065124511719,3.0,8.0,-9999,1523201500.338051,-1735.56103515625,-1364.107421875,-1462.6517333984382,271.03817749023443,267.20535278320307,10,213310.81439525,0.996917724609375,0.0190887451171875,-0.0178375244140625,213310.81439525,-0.02822364860044175,-0.0871596698400043,0.0123514748196785,213310.79564425,2.3260152407538666,1.5604261301694509,-0.02699121520332837,-0.001206765882670879,-0.05945527926087379,0.01627705059945583,0.04419833421707153,-0.05504885315895081,-0.07482361793518066,XArbitraryCorrectedZVertical,-0.649495005607605,0.2701354026794434,0.648655354976654,0.2905622720718384,0.999579131603241,0.02698793821036816,-0.01036620419472456,0,0,0,-1,213262.33090175,automotive,2,2018-04-08 10:30:51.912 -0500,4
2018-04-08 10:31:40.497,1523201499.99919,30.32663766254495,-97.75603963157322,207.9985,27.20267,180.7065124511719,3.0,8.0,-9999,1523201500.462992,-1735.7972412109382,-1362.847534179688,-1463.1065673828118,271.0012817382812,267.16845703125,10,213310.91440025,1.000503540039062,-0.00543212890625,-0.1286468505859375,213310.91440025,-0.011516041185720641,-0.01308917044163045,-0.007370830949012306,213310.89564925,2.326297157429337,1.5592431101223507,-0.02847885410091309,0.01365632098168135,-0.08126267790794373,-0.004083097446709871,0.040055930614471436,-0.0060293376445770255,-0.1362788677215576,XArbitraryCorrectedZVertical,-0.6493522524833679,0.2693836092948914,0.6488665938377379,0.2911078333854675,0.9995253086090088,0.02847500517964363,-0.01154824625700712,0,0,0,-1,213262.33090175,automotive,2,2018-04-08 10:30:51.912 -0500,4
2018-04-08 10:31:40.597,1523201499.99919,30.32663766254495,-97.75603963157322,207.9985,27.20267,180.7065124511719,3.0,8.0,-9999,1523201500.5630429,-1735.57275390625,-1364.061645507812,-1463.678466796875,270.9613037109375,267.1284790039062,10,213311.01440425,1.097122192382812,0.0169525146484375,-0.1285858154296875,213311.01440425,-0.008613994545861295,0.05557617720831858,0.01266865730550694,213310.99565425,2.3268698751585717,1.560037273350635,-0.030078111005845464,-0.0003921613097190857,0.04076796025037766,0.006182075012475252,0.058860838413238525,0.01397854089736938,-0.04794663190841675,XArbitraryCorrectedZVertical,-0.6499044895172119,0.2687883377075195,0.6484623551368713,0.2913288176059723,0.9994887709617616,0.03007357567548752,-0.01075396779924631,0,0,0,-1,213262.33090175,automotive,2,2018-04-08 10:30:51.912 -0500,4
2018-04-08 10:31:40.697,1523201499.99919,30.32663766254495,-97.75603963157322,207.9985,27.20267,180.7065124511719,3.0,8.0,-9999,1523201500.6630712,-1735.7412109375,-1363.084350585938,-1459.234130859375,270.9273681640625,267.0945434570312,10,213311.11440925,1.018753051757812,0.0421295166015625,-0.142822265625,213311.11440925,0.01875531197688304,0.06211903137442525,0.006036853558991617,213311.09565825,2.327052330978509,1.5622392644639298,-0.030539189798059488,0.005775999743491411,0.1017769873142242,0.0005137562984600663,-0.0241391658782959,-0.003221213817596436,0.02262157201766968,XArbitraryCorrectedZVertical,-0.6507051587104797,0.2688983380794525,0.6477065086364746,0.2911217510700226,0.9994962215423584,0.030534442514181137,-0.008552960120141506,0,0,0,-1,213262.33090175,automotive,2,2018-04-08 10:30:51.912 -0500,4
2018-04-08 10:31:40.797,1523201499.99919,30.32663766254495,-97.75603963157322,207.9985,27.20267,180.7065124511719,3.0,8.0,-9999,1523201500.788059,-1735.6771240234382,-1363.51220703125,-1464.353759765625,270.9197387695312,267.0869140625,10,213311.21441425,0.891937255859375,0.0188751220703125,-0.0654754638671875,213311.21441425,0.000370445707630022,0.2952148689447007,-0.033455428561902416,213311.19566325,2.327048846965484,1.560267662272969,-0.03132614551465853,0.0058187427930533895,0.1278845369815826,-0.03174947574734688,-0.1525439620018005,0.006520777940750122,0.01766437292098999,XArbitraryCorrectedZVertical,-0.650172770023346,0.2683537304401398,0.6482332348823547,0.2916398942470551,0.9994525313377379,0.03132102265954018,-0.0105232885107398,0,0,0,-1,213262.33090175,automotive,2,2018-04-08 10:30:51.912 -0500,4
2018-04-08 10:31:40.897,1523201499.99919,30.32663766254495,-97.75603963157322,207.9985,27.20267,180.7065124511719,3.0,8.0,-9999,1523201500.788059,-1735.6771240234382,-1363.51220703125,-1464.353759765625,270.9197387695312,267.0869140625,10,213311.31441825,0.9144287109375,0.0200653076171875,-0.0201873779296875,213311.31441825,-0.002012284519663872,0.03479633017075731,-0.05372288340573244,213311.29566725,2.3275012604452208,1.5571495699756368,-0.03221103602265248,-0.03533622995018959,0.1725289523601532,-0.03490043058991432,-0.2746092081069946,0.01364719867706299,0.1797158718109131,XArbitraryCorrectedZVertical,-0.6493421196937561,0.2674606442451477,0.6491844058036804,0.2921942174434662,0.9993864893913268,0.03220546618103981,-0.01363923028111458,0,0,0,-1,213262.33090175,automotive,2,2018-04-08 10:30:51.912 -0500,4
2018-04-08 10:31:40.997,1523201499.99919,30.32663766254495,-97.75603963157322,207.9985,27.20267,180.7065124511719,3.0,8.0,-9999,1523201500.913143,-1735.8065185546882,-1362.892578125,-1468.9468994140618,270.8827514648438,267.0499267578125,10,213311.41442325,0.94427490234375,0.0276947021484375,-0.0941314697265625,213311.41442325,-0.03899693415813929,0.046803458261488566,-0.02032125069784963,213311.39567225,2.328101801026604,1.5542824536855633,-0.03266058862724832,-0.0043323859572410575,-0.009399359114468098,-0.03214950114488602,-0.06953442096710205,0.009901970624923706,-0.05795860290527344,XArbitraryCorrectedZVertical,-0.6485520005226135,0.2666986286640167,0.650137722492218,0.2925258576869965,0.9993287324905396,0.0326547808945179,-0.01650428771972656,0,0,0,-1,213262.33090175,automotive,2,2018-04-08 10:30:51.912 -0500,4
2018-04-08 10:31:41.097,1523201499.99919,30.32663766254495,-97.75603963157322,207.9985,27.20267,180.7065124511719,3.0,8.0,-9999,1523201501.013228,-1735.750732421875,-1362.592041015625,-1464.8359375,270.86911010742193,267.03628540039057,10,213311.514428,0.985443115234375,0.0471343994140625,-0.0323028564453125,213311.514428,-0.022299713071669492,0.1067277785815795,-0.026049710202610068,213311.495677,2.328092296667061,1.5557244840148992,-0.032213063116668536,-0.02039689570665359,0.06252966821193695,-0.008791977539658545,0.0624927282333374,-0.000682830810546875,-0.05358588695526123,XArbitraryCorrectedZVertical,-0.6489585638046265,0.2670600414276123,0.6497332453727722,0.29219359159469604,0.9993664026260376,0.032207492738962167,-0.015063433907926081,0,0,0,-1,213262.33090175,automotive,2,2018-04-08 10:30:51.912 -0500,4
2018-04-08 10:31:41.197,1523201500.999191,30.32640484178994,-97.75604294114927,207.7975,26.4211,180.7065124511719,3.0,12.0,-9999,1523201501.113408,-1735.5692138671882,-1363.514038085938,-1461.62744140625,270.85305786132807,267.02023315429693,10,213311.614432,0.97760009765625,0.038543701171875,0.02471923828125,213311.614432,-0.03265008864826245,0.029379993145754162,-0.01599787498421499,213311.595681,2.328511062740079,1.558953160438936,-0.032501706037255065,-0.03185525164008141,0.03526996076107025,-0.02145757339894772,-0.006175637245178223,0.001607418060302734,0.02723276615142822,XArbitraryCorrectedZVertical,-0.6501016616821289,0.2673004269599915,0.6487043499946594,0.2917189002037048,0.9994007349014282,0.03249598294496536,-0.01183662284165621,0,0,0,-1,213262.33090175,automotive,2,2018-04-08 10:30:51.912 -0500,4
2018-04-08 10:31:41.297,1523201500.999191,30.32640484178994,-97.75604294114927,207.7975,26.4211,180.7065124511719,3.0,12.0,-9999,1523201501.2380948,-1735.7535400390618,-1362.569580078125,-1464.387939453125,270.82785034179693,266.99502563476557,10,213311.714437,0.963958740234375,0.063018798828125,-0.0443572998046875,213311.714437,-0.03274383191863324,0.04900562616687509,-0.004295945154406819,213311.695686,2.3287742768806545,1.559138622421906,-0.03282323425715125,-0.02987005189061165,0.0559944361448288,-0.00334471557289362,-0.02786535024642944,-0.02740046381950378,0.02597916126251221,XArbitraryCorrectedZVertical,-0.6502404808998108,0.2671361863613129,0.6486361026763916,0.291711837053299,0.9993924498558044,0.03281734138727188,-0.01165114995092154,0,0,0,-1,213262.33090175,automotive,2,2018-04-08 10:30:51.912 -0500,4
2018-04-08 10:31:41.397,1523201500.999191,30.32640484178994,-97.75604294114927,207.7975,26.4211,180.7065124511719,3.0,12.0,-9999,1523201501.3381221,-1735.5872802734382,-1363.460083007812,-1464.2579345703118,270.81454467773443,266.98171997070307,10,213311.814442,1.017425537109375,0.03814697265625,-0.023345947265625,213311.814442,-0.04433044687324098,-0.0043310988807958644,0.03995007951227865,213311.795691,2.329089893867028,1.560684661848901,-0.031688177761083985,-0.01285668276250362,-0.0289582684636116,0.011922562494873999,0.07426917552947998,0.059198468923568726,-0.07813513278961183,XArbitraryCorrectedZVertical,-0.6506304144859314,0.2676319479942322,0.6483430862426758,0.2910389006137848,0.9994460940361024,0.03168287500739098,-0.01010640803724527,0,0,0,-1,213262.33090175,automotive,2,2018-04-08 10:30:51.912 -0500,4
2018-04-08 10:31:41.497,1523201500.999191,30.32640484178994,-97.75604294114927,207.7975,26.4211,180.7065124511719,3.0,12.0,-9999,1523201501.438146,-1735.529296875,-1363.76416015625,-1463.8197021484382,270.8096313476562,266.976806640625,10,213311.914446,0.94305419921875,0.0048065185546875,0.0661163330078125,213311.914446,-0.05358439902904832,-0.052305815389701284,0.01450117845159046,213311.895695,2.329225212255881,1.5632420591791019,-0.028998546734041213,-0.032833032310008996,-0.0594526007771492,0.030404128134250637,0.09380292892456056,0.02012354135513306,-0.09041041135787964,XArbitraryCorrectedZVertical,-0.6511131525039673,0.2688422501087189,0.6479178667068481,0.2897882461547852,0.9995503425598145,0.02899448201060295,-0.007551014423370361,0,0,0,-1,213262.33090175,automotive,2,2018-04-08 10:30:51.912 -0500,4
2018-04-08 10:31:41.597,1523201500.999191,30.32640484178994,-97.75604294114927,207.7975,26.4211,180.7065124511719,3.0,12.0,-9999,1523201501.56326,-1735.502197265625,-1363.934204101562,-1465.331787109375,270.81704711914057,266.98422241210943,10,213312.014451,0.9199981689453124,0.0109100341796875,-0.017333984375,213312.014451,-0.03539181299049902,-0.1155343196742535,-0.02284193266960963,213311.9957,2.329070626359978,1.562785161559635,-0.027829621952705483,-0.04101017117500305,-0.1172314509749413,0.004989172331988811,0.03540885448455811,-0.07517406344413757,-0.080782949924469,XArbitraryCorrectedZVertical,-0.6507858037948608,0.2692096829414368,0.6482120156288147,0.2895237803459167,0.9995795488357544,0.02782602980732918,-0.00800796877592802,0,0,0,-1,213262.33090175,automotive,2,2018-04-08 10:30:51.912 -0500,4
2018-04-08 10:31:41.697,1523201500.999191,30.32640484178994,-97.75604294114927,207.7975,26.4211,180.7065124511719,3.0,12.0,-9999,1523201501.688075,-1735.44580078125,-1364.289916992188,-1468.6016845703118,270.81399536132807,266.98117065429693,10,213312.11445599998,0.8800506591796875,0.0166778564453125,-0.02423095703125,213312.11445599998,-0.043098734869079336,0.001047687572837172,-0.0158066600179473,213312.09570499999,2.3289000531436117,1.560927641143813,-0.029132402454002764,-0.026382802054286,-0.057320818305015564,-0.01036893296986818,-0.01035934686660767,-0.045897692441940315,-0.104454517364502,XArbitraryCorrectedZVertical,-0.6503375172615051,0.2685683369636536,0.6486040949821472,0.2902472317218781,0.9995256066322328,0.029128281399607662,-0.009864323772490023,0,0,0,-1,213262.33090175,automotive,2,2018-04-08 10:30:51.912 -0500,4
2018-04-08 10:31:41.797,1523201500.999191,30.32640484178994,-97.75604294114927,207.7975,26.4211,180.7065124511719,3.0,12.0,-9999,1523201501.7880812,-1735.605712890625,-1363.353881835938,-1463.82861328125,270.8131103515625,266.9802856445312,10,213312.21446,0.9644927978515624,0.026611328125,0.011810302734375,213312.21446,-0.04835581486089575,-0.01201831336730959,-0.007142598043592518,213312.19571,2.3290199661167805,1.5602708551933,-0.0306868399026913,-0.028502874076366418,-0.039901148527860635,-0.02007946185767651,-0.009055256843566895,0.0154300332069397,-0.06653660535812378,XArbitraryCorrectedZVertical,-0.650351345539093,0.2679234445095062,0.6486116051673889,0.2907955348491669,0.9994727373123168,0.030682023614645,-0.01052031014114618,0,0,0,-1,213262.33090175,automotive,2,2018-04-08 10:30:51.912 -0500,4
2018-04-08 10:31:41.897,1523201500.999191,30.32640484178994,-97.75604294114927,207.7975,26.4211,180.7065124511719,3.0,12.0,-9999,1523201501.7880812,-1735.605712890625,-1363.353881835938,-1463.82861328125,270.8131103515625,266.9802856445312,10,213312.314465,0.9935760498046876,-0.0394439697265625,-0.0369720458984375,213312.314465,-0.03358991819695142,-0.01528734360538185,-0.013651363747746179,213312.295714,2.328815922092079,1.559886658459192,-0.03194712642844297,-0.01808653399348259,-0.0159111525863409,-0.00739073334261775,0.06514567136764526,-0.020314514636993408,-0.07054752111434938,XArbitraryCorrectedZVertical,-0.6503700613975525,0.2675198018550873,0.6485254764556885,0.2913176119327545,0.9994295835494996,0.031941693276166916,-0.01090387813746929,0,0,0,-1,213262.33090175,automotive,2,2018-04-08 10:30:51.912 -0500,4
2018-04-08 10:31:41.997,1523201500.999191,30.32640484178994,-97.75604294114927,207.7975,26.4211,180.7065124511719,3.0,12.0,-9999,1523201501.913216,-1735.669677734375,-1363.00048828125,-1463.195556640625,270.80740356445307,266.97457885742193,10,213312.41447000002,0.934722900390625,0.00115966796875,-0.014862060546875,213312.41447000002,-0.01536111316757705,-0.1002978424456922,-0.0444686649338161,213312.395719,2.328665815709391,1.559220474362919,-0.03490267766362588,-0.02424731850624084,-0.05950748547911644,-0.01787604764103889,0.02495330572128296,-0.1322771608829498,-0.042356014251708984,XArbitraryCorrectedZVertical,-0.6505334377288818,0.2664994895458221,0.6482934355735779,0.292402595281601,0.9993234276771544,0.03489559143781662,-0.01156853698194027,0,0,0,-1,213262.33090175,automotive,2,2018-04-08 10:30:51.912 -0500,4
2018-04-08 10:31:42.097,1523201500.999191,30.32640484178994,-97.75604294114927,207.7975,26.4211,180.7065124511719,3.0,12.0,-9999,1523201502.038019,-1735.7679443359382,-1362.779296875,-1466.6201171875,270.8198852539062,266.987060546875,10,213312.514474875,0.824310302734375,-0.0202178955078125,0.0309295654296875,213312.514474875,-0.05563929412615346,-0.05014785595841007,-0.001569933462601711,213312.495723875,2.3286165312593434,1.5570603011459758,-0.04010917871420884,-0.004310891963541508,-0.08124473690986632,0.01638631895184517,0.051955103874206536,0.08436751365661621,-0.1165397763252258,XArbitraryCorrectedZVertical,-0.6505274772644043,0.2644838988780975,0.6482338309288025,0.2943713068962097,0.9991008043289183,0.04009842500090599,-0.013724537566304209,0,0,0,-1,213262.33090175,automotive,2,2018-04-08 10:30:51.912 -0500,4
2018-04-08 10:31:42.197,1523201501.9991891,30.326183420326576,-97.75604745157715,207.5087,25.451929999999997,181.04168701171884,3.0,12.0,-9999,1523201502.138138,-1735.6851806640618,-1363.26708984375,-1469.3167724609382,270.837158203125,267.0043334960938,10,213312.614478875,0.9400177001953124,0.1481475830078125,-0.020843505859375,213312.614478875,-0.009373528088751895,-0.022897592736392282,-0.01055597161274708,213312.595728875,2.328569772033629,1.5558304485114598,-0.04323306535653376,-0.04132888466119766,-0.028952967375516888,0.028178062289953232,0.1032805442810059,0.1212243437767029,-0.111803412437439,XArbitraryCorrectedZVertical,-0.6505414247512817,0.2632872760295868,0.6481723785400391,0.2955466508865356,0.9989532828330994,0.04321959987282753,-0.014951329678297041,0,0,0,-1,213262.33090175,automotive,2,2018-04-08 10:30:51.912 -0500,4
2018-04-08 10:31:42.299,1523201501.9991891,30.326183420326576,-97.75604745157715,207.5087,25.451929999999997,181.04168701171884,3.0,12.0,-9999,1523201502.2633462,-1735.8775634765618,-1362.158569335938,-1464.6632080078118,270.8688354492188,267.0360107421875,10,213312.714483875,0.9141845703125,0.0553436279296875,0.01995849609375,213312.714483875,-0.03567171122106635,-0.04468491361433053,0.002566222026400354,213312.695732875,2.3278117358379533,1.557468724808016,-0.0422318430625635,-0.02652544900774956,-0.06597739458084106,0.03681974112987518,0.07184267044067383,-0.04473698139190674,-0.07774913311004639,XArbitraryCorrectedZVertical,-0.6508381366729736,0.2641061544418335,0.6476733684539795,0.2952564656734467,0.9990191459655762,0.042219292372465134,-0.013315318152308459,0,0,0,-1,213262.33090175,automotive,2,2018-04-08 10:30:51.912 -0500,4
2018-04-08 10:31:42.397,1523201501.9991891,30.326183420326576,-97.75604745157715,207.5087,25.451929999999997,181.04168701171884,3.0,12.0,-9999,1523201502.388124,-1735.7706298828118,-1362.70654296875,-1463.0625,270.9157104492188,267.0828857421875,10,213312.814488875,0.890869140625,-0.029083251953125,-0.0333709716796875,213312.814488875,-0.02009488200519289,0.029413016343271137,0.00535535063604034,213312.795737875,2.326860499640147,1.5561869613664039,-0.04081773705874511,-0.026651360094547268,-0.008244391530752182,0.02799183130264282,-0.07791781425476074,-0.05695021152496337,-0.01312851905822754,XArbitraryCorrectedZVertical,-0.6501072645187378,0.2646926641464233,0.6481561660766602,0.2952826321125031,0.999060332775116,0.04080640524625778,-0.01459667645394802,0,0,0,-1,213262.33090175,automotive,2,2018-04-08 10:30:51.912 -0500,4
2018-04-08 10:31:42.497,1523201501.9991891,30.326183420326576,-97.75604745157715,207.5087,25.451929999999997,181.04168701171884,3.0,12.0,-9999,1523201502.4881392,-1735.965576171875,-1361.69580078125,-1465.240234375,270.9489135742188,267.1160888671875,10,213312.914493875,0.8980255126953125,-0.0131072998046875,-0.048919677734375,213312.914493875,0.004011519549986357,0.1056529267656235,-0.02513970805812999,213312.895742875,2.3261131613889248,1.55398322284668,-0.0407048970461566,0.011182046495378021,0.07125194370746613,-0.01868198625743389,-0.1066811680793762,-0.028395056724548336,-0.0007034540176391603,XArbitraryCorrectedZVertical,-0.6492786407470703,0.2646470367908478,0.6487780809402466,0.2957805991172791,0.9990304112434388,0.040693655610084534,-0.01679838448762894,0,0,0,-1,213262.33090175,automotive,2,2018-04-08 10:30:51.912 -0500,4
2018-04-08 10:31:42.597,1523201501.9991891,30.326183420326576,-97.75604745157715,207.5087,25.451929999999997,181.04168701171884,3.0,12.0,-9999,1523201502.588209,-1735.8302001953118,-1362.397827148438,-1463.754638671875,270.984375,267.1515502929688,10,213313.014498875,0.878997802734375,0.001373291015625,-0.0208892822265625,213313.014498875,-0.004179298698661348,0.062028750213471574,-0.057044377917279274,213312.995747875,2.325532037707639,1.551333382566829,-0.0420759054519848,-0.01506310235708952,0.06468398123979567,-0.032417260110378265,-0.1510405540466309,-0.04874682426452637,0.04079151153564453,XArbitraryCorrectedZVertical,-0.6485267281532288,0.2639902234077454,0.649351954460144,0.2967561781406403,0.9989256858825684,0.04206349328160286,-0.019444489851593968,0,0,0,-1,213262.33090175,automotive,2,2018-04-08 10:30:51.912 -0500,4
2018-04-08 10:31:42.697,1523201501.9991891,30.326183420326576,-97.75604745157715,207.5087,25.451929999999997,181.04168701171884,3.0,12.0,-9999,1523201502.588209,-1735.8302001953118,-1362.397827148438,-1463.754638671875,270.984375,267.1515502929688,10,213313.114503875,0.98388671875,0.0431365966796875,-0.091949462890625,213313.114503875,-0.02400573406597425,-8.415589044650392e-05,-0.05771629346030626,213313.095752875,2.324984033840322,1.5487487077945892,-0.04471443172181155,-0.01264688745141029,-0.0018216490279883148,-0.07071986794471741,-0.07235032320022583,-0.05556377768516541,-0.041864752769470215,XArbitraryCorrectedZVertical,-0.6479707956314087,0.2629105448722839,0.6497228741645813,0.2981133759021759,0.9987571835517884,0.0446995347738266,-0.02202378772199154,0,0,0,-1,213262.33090175,automotive,2,2018-04-08 10:30:51.912 -0500,4
2018-04-08 10:31:42.797,1523201501.9991891,30.326183420326576,-97.75604745157715,207.5087,25.451929999999997,181.04168701171884,3.0,12.0,-9999,1523201502.713049,-1735.6968994140618,-1363.170532226562,-1467.227783203125,271.03500366210943,267.20217895507807,10,213313.214508875,1.045196533203125,0.0199432373046875,-0.1303863525390625,213313.214508875,0.0073974625599131,0.02067358691006711,-0.02478577394925846,213313.195757875,2.324349699515073,1.5488361664854942,-0.04717376961923463,0.01563473418354988,-0.009378132410347462,-0.025855626910924908,-0.001179814338684082,-0.02603811025619507,-0.09929710626602173,XArbitraryCorrectedZVertical,-0.6482467651367188,0.2623149752616882,0.6492401957511902,0.2990891337394714,0.9986468553543092,0.04715627431869507,-0.02193397097289562,0,0,0,-1,213262.33090175,automotive,2,2018-04-08 10:30:51.912 -0500,4
2018-04-08 10:31:42.897,1523201501.9991891,30.326183420326576,-97.75604745157715,207.5087,25.451929999999997,181.04168701171884,3.0,12.0,-9999,1523201502.813074,-1735.656005859375,-1363.316772460938,-1462.7467041015618,271.06289672851557,267.23007202148443,10,213313.314513875,1.049606323242188,0.01678466796875,-0.1209259033203125,213313.314513875,0.01877581831727665,0.06973087840208972,-0.005784918519870121,213313.295762875,2.323621237798482,1.549336201663368,-0.04908363383480863,0.031238753348588937,0.04620639979839325,-0.01655536703765392,0.0582277774810791,-0.05565571784973145,-0.09476304054260254,XArbitraryCorrectedZVertical,-0.6485700607299805,0.2619934380054474,0.6486883163452148,0.2998659014701843,0.998565435409546,0.049063928425312035,-0.021432628855109208,0,0,0,-1,213262.33090175,automotive,2,2018-04-08 10:30:51.912 -0500,4
2018-04-08 10:31:42.997,1523201501.9991891,30.326183420326576,-97.75604745157715,207.5087,25.451929999999997,181.04168701171884,3.0,12.0,-9999,1523201502.913152,-1735.7906494140618,-1362.568603515625,-1461.1807861328118,271.0892944335938,267.2564697265625,10,213313.414517875,1.147430419921875,-0.0478515625,-0.1522674560546875,213313.414517875,0.02312422774515803,0.0196147140606516,-0.006662696415160238,213313.395767875,2.3229941782394348,1.54985117557719,-0.05101694795138568,0.03540165349841118,0.06472907960414886,-0.01773633994162083,-0.040349304676055915,-0.008590638637542725,-0.040835976600646966,XArbitraryCorrectedZVertical,-0.6489141583442688,0.2616337835788727,0.6481420993804932,0.3006149232387543,0.998479187488556,0.05099482089281082,-0.020916357636451718,0,0,0,-1,213262.33090175,automotive,2,2018-04-08 10:30:51.912 -0500,4
2018-04-08 10:31:43.097,1523201501.9991891,30.326183420326576,-97.75604745157715,207.5087,25.451929999999997,181.04168701171884,3.0,12.0,-9999,1523201503.038194,-1735.9554443359382,-1361.787719726562,-1462.276611328125,271.13638305664057,267.30355834960943,10,213313.514522625,1.081329345703125,0.0249786376953125,-0.1851043701171875,213313.514522625,0.05060858282699378,0.0152319498547082,-0.03789465178295549,213313.495771625,2.3224734511091594,1.550069842221357,-0.052856991206990285,0.033360175788402564,0.06797061860561371,-0.0380970798432827,-0.06851804256439209,0.02178308367729187,-0.037928223609924316,XArbitraryCorrectedZVertical,-0.6491631269454956,0.2612263560295105,0.6477211713790894,0.301338791847229,0.998388648033142,0.052832383662462234,-0.02069605141878128,0,0,0,-1,213262.33090175,automotive,2,2018-04-08 10:30:51.912 -0500,4
2018-04-08 10:31:43.197,1523201502.9991891,30.3259580208367,-97.75605217598974,207.24599999999998,25.451929999999997,181.04168701171884,3.0,12.0,-9999,1523201503.163537,-1735.8519287109382,-1362.447509765625,-1468.6878662109382,271.18435668945307,267.35153198242193,10,213313.614527625,1.033843994140625,0.08355712890625,-0.1062164306640625,213313.614527625,0.008941829676050048,0.1612852966729428,0.02709366934992113,213313.595776625,2.3218279376105717,1.5512300316818248,-0.052983006367966684,0.01707544177770615,0.1889586299657822,0.01076582074165344,0.005272209644317627,0.05939224362373353,-0.055306792259216316,XArbitraryCorrectedZVertical,-0.6494712233543396,0.2615689933300018,0.647228479385376,0.3014360070228577,0.9984051585197448,0.05295822024345398,-0.019537582993507392,0,0,0,-1,213262.33090175,automotive,2,2018-04-08 10:30:51.912 -0500,4
2018-04-08 10:31:43.297,1523201502.9991891,30.3259580208367,-97.75605217598974,207.24599999999998,25.451929999999997,181.04168701171884,3.0,12.0,-9999,1523201503.2881901,-1736.275634765625,-1359.981079101562,-1456.869140625,271.2211303710938,267.3883056640625,10,213313.714532625,0.92657470703125,0.0277252197265625,0.09466552734375,213313.714532625,-0.03799611822048751,-0.01848473481013099,0.04533073017867475,213313.695781625,2.321500165437132,1.555578982744637,-0.04793707781767625,-0.026669558137655258,-0.02782983332872391,0.04736315086483955,-0.03668302297592163,0.031884759664535516,0.08221584558486937,XArbitraryCorrectedZVertical,-0.6501587629318237,0.2639961242675781,0.6465120911598206,0.2993669509887695,0.998734414577484,0.04791872203350067,-0.015199258923530582,0,0,0,-1,213262.33090175,automotive,2,2018-04-08 10:30:51.912 -0500,4
2018-04-08 10:31:43.397,1523201502.9991891,30.3259580208367,-97.75605217598974,207.24599999999998,25.451929999999997,181.04168701171884,3.0,12.0,-9999,1523201503.388199,-1735.4949951171882,-1364.384887695312,-1470.0084228515618,271.25448608398443,267.42166137695307,10,213313.814537625,0.9378662109375,-0.013458251953125,-0.069000244140625,213313.814537625,-0.04849323397314384,-0.03156138839463806,0.047598145530768216,213313.795786625,2.3210190984660213,1.55299834581852,-0.04169058252643301,-0.015932554379105568,-0.09864969551563264,0.04117747768759727,0.013922333717346191,-0.02173528075218201,-0.06731671094894409,XArbitraryCorrectedZVertical,-0.6484171152114868,0.2658278942108154,0.6481967568397522,0.2978762090206146,0.9989713430404664,0.04167850688099861,-0.01778155006468296,0,0,0,-1,213262.33090175,automotive,2,2018-04-08 10:30:51.912 -0500,4
2018-04-08 10:31:43.497,1523201502.9991891,30.3259580208367,-97.75605217598974,207.24599999999998,25.451929999999997,181.04168701171884,3.0,12.0,-9999,1523201503.388199,-1735.4949951171882,-1364.384887695312,-1470.0084228515618,271.25448608398443,267.42166137695307,10,213313.914542625,0.988494873046875,0.001312255859375,-0.0450286865234375,213313.914542625,-0.024275245968290268,0.008719722041137442,0.012974654514757041,213313.895791625,2.3208746715443467,1.5549757004017841,-0.03837181095660761,-0.014981288462877268,-0.03657133504748344,0.022682413458824158,0.1068350076675415,-0.022294878959655758,-0.09953290224075316,XArbitraryCorrectedZVertical,-0.6485881209373474,0.2672626078128815,0.6480197906494141,0.29660218954086304,0.9991372227668762,0.038362395018339164,-0.015808295458555218,0,0,0,-1,213262.33090175,automotive,2,2018-04-08 10:30:51.912 -0500,4
2018-04-08 10:31:43.598,1523201502.9991891,30.3259580208367,-97.75605217598974,207.24599999999998,25.451929999999997,181.04168701171884,3.0,12.0,-9999,1523201503.5131161,-1735.5882568359382,-1363.778564453125,-1463.5037841796882,271.24649047851557,267.41366577148443,10,213314.014547625,1.050460815429688,-0.043792724609375,-0.09234619140625,213314.014547625,0.006499178324229373,-0.02836239929323488,-0.030993336134124163,213313.995796625,2.321001023643514,1.5573928627150517,-0.037804201523255414,0.00186676811426878,-0.01588501036167145,0.00319112092256546,0.04563617706298828,-0.1022635698318481,-0.08383548259735107,XArbitraryCorrectedZVertical,-0.6493106484413147,0.2677665948867798,0.6473371982574463,0.296056866645813,0.9991941452026368,0.03779519721865654,-0.01339346542954445,0,0,0,-1,213262.33090175,automotive,2,2018-04-08 10:30:51.912 -0500,4
2018-04-08 10:31:43.697,1523201502.9991891,30.3259580208367,-97.75605217598974,207.24599999999998,25.451929999999997,181.04168701171884,3.0,12.0,-9999,1523201503.638199,-1736.005859375,-1361.528564453125,-1462.9874267578118,271.21054077148443,267.37771606445307,10,213314.114552625,0.8858489990234375,-0.015350341796875,-0.0541839599609375,213314.114552625,-0.01273736686163098,0.0109165636243438,0.02253673440868655,213314.095801625,2.3211475117633293,1.5554056984747067,-0.041287160562467166,0.02076249569654465,0.001557201845571399,0.004068322479724884,-0.1368451118469238,0.05677753686904907,-0.04556667804718018,XArbitraryCorrectedZVertical,-0.6491593718528748,0.2662774324417114,0.6474938988685608,0.2973857223987579,0.9990276694297792,0.04127543047070503,-0.015376877970993519,0,0,0,-1,213262.33090175,automotive,2,2018-04-08 10:30:51.912 -0500,4
2018-04-08 10:31:43.797,1523201502.9991891,30.3259580208367,-97.75605217598974,207.24599999999998,25.451929999999997,181.04168701171884,3.0,12.0,-9999,1523201503.738216,-1736.0078125,-1361.54150390625,-1464.4168701171882,271.2069091796875,267.3740844726562,10,213314.214557625,0.9609222412109376,0.121337890625,-0.1725616455078125,213314.214557625,0.01140924842600846,-0.03585307249130075,0.0761725324467734,213314.195806625,2.321348335312091,1.5492094132160381,-0.04055289313902327,0.0239584781229496,-0.03981627896428108,0.02566586621105671,-0.1624107360839844,0.134476512670517,-0.05013358592987061,XArbitraryCorrectedZVertical,-0.6470770835876465,0.26553252339363104,0.6496392488479614,0.2979107797145844,0.998943328857422,0.04054177924990654,-0.02156745456159115,0,0,0,-1,213262.33090175,automotive,2,2018-04-08 10:30:51.912 -0500,4
2018-04-08 10:31:43.897,1523201502.9991891,30.3259580208367,-97.75605217598974,207.24599999999998,25.451929999999997,181.04168701171884,3.0,12.0,-9999,1523201503.8631911,-1735.710205078125,-1363.1884765625,-1467.4442138671882,271.186279296875,267.3534545898438,10,213314.314562625,0.96368408203125,0.0284881591796875,-0.12841796875,213314.314562625,-0.0075625785474980126,-0.05762201755771745,0.1010363370159712,213314.295811625,2.3218839369834123,1.5464622304309712,-0.03211130924218885,0.024799548089504242,-0.03974008932709694,0.0856686681509018,-0.062281429767608636,0.07609426975250244,-0.1197543740272522,XArbitraryCorrectedZVertical,-0.6451008319854736,0.2677412331104279,0.651831865310669,0.2954191863536835,0.9991863369941713,0.03210579231381416,-0.02431909739971161,0,0,0,-1,213262.33090175,automotive,2,2018-04-08 10:30:51.912 -0500,4
2018-04-08 10:31:43.997,1523201502.9991891,30.3259580208367,-97.75605217598974,207.24599999999998,25.451929999999997,181.04168701171884,3.0,12.0,-9999,1523201503.988154,-1735.33154296875,-1364.747924804688,-1468.5733642578118,271.1799926757812,267.34716796875,10,213314.414567625,0.9972991943359376,-0.037750244140625,-0.0506744384765625,213314.414567625,-0.03697293172967907,-0.007589210158398804,0.04527613537632812,213314.395816625,2.322037508310703,1.546640524278245,-0.02490394039931294,-0.01195766869932413,-0.043052531778812415,0.06555461138486862,0.1170891523361206,-0.04591271281242371,-0.1116114854812622,XArbitraryCorrectedZVertical,-0.6441850662231445,0.2700974643230438,0.6528337597846985,0.293051540851593,0.9993965029716492,0.02490136586129665,-0.02414591982960701,0,0,0,-1,213262.33090175,automotive,2,2018-04-08 10:30:51.912 -0500,4
2018-04-08 10:31:44.097,1523201502.9991891,30.3259580208367,-97.75605217598974,207.24599999999998,25.451929999999997,181.04168701171884,3.0,12.0,-9999,1523201504.088225,-1735.50537109375,-1363.727172851562,-1463.1590576171882,271.1220703125,267.2892456054688,10,213314.514573375,0.995635986328125,0.0317535400390625,-0.013519287109375,213314.514573375,-0.03278511091552947,0.0435781038652936,0.011802863635122179,213314.495822375,2.322839147393632,1.549164098584027,-0.02214094040991392,-0.0330551490187645,0.03641108050942421,0.017111072316765792,0.06580311059951782,0.01355117559432983,-0.04792433977127075,XArbitraryCorrectedZVertical,-0.6447340250015259,0.2711188495159149,0.652533233165741,0.2915677130222321,0.9995197653770448,0.02213913202285767,-0.02162521332502365,0,0,0,-1,213262.33090175,automotive,2,2018-04-08 10:30:51.912 -0500,4
2018-04-08 10:31:44.197,1523201503.9991882,30.325741808107,-97.75611017278904,206.945,24.82282,180.64959698015969,3.0,12.0,-9999,1523201504.088225,-1735.50537109375,-1363.727172851562,-1463.1590576171882,271.1220703125,267.2892456054688,10,213314.614578375,1.054519653320312,0.0352630615234375,-0.0967559814453125,213314.614578375,-0.010505904184253591,-0.025046497419977217,0.014108362190803768,213314.595828375,2.323563810671517,1.5493861238793951,-0.02035890583839893,-0.005500991828739643,-0.014800073578953741,0.002159786876291037,-0.04170686006546021,-0.01434552669525146,-0.03827303647994995,XArbitraryCorrectedZVertical,-0.644657552242279,0.2715043127536774,0.6528211236000061,0.2907318770885468,0.9995620250701904,0.02035749889910221,-0.02140409685671329,0,0,0,-1,213262.33090175,automotive,2,2018-04-08 10:30:51.912 -0500,4
2018-04-08 10:31:44.297,1523201503.9991882,30.325741808107,-97.75611017278904,206.945,24.82282,180.64959698015969,3.0,12.0,-9999,1523201504.2131288,-1735.5224609375,-1363.673828125,-1465.5203857421882,271.0589599609375,267.2261352539062,10,213314.714584375,1.131179809570312,0.0804290771484375,-0.2328033447265625,213314.714584375,0.01577922945871948,0.004364654710530863,-0.001190699323374427,213314.695833375,2.323987164616105,1.548943687727499,-0.02072370968439225,0.00164462998509407,0.07235900312662125,-0.001483493717387319,0.01557600498199463,-0.04380875825881958,-0.04451429843902588,XArbitraryCorrectedZVertical,-0.6446211338043213,0.2711835205554962,0.6529735922813416,0.2907704710960388,0.9995454549789428,0.02072222717106342,-0.021846184507012367,0,0,0,-1,213262.33090175,automotive,2,2018-04-08 10:30:51.912 -0500,4
2018-04-08 10:31:44.398,1523201503.9991882,30.325741808107,-97.75611017278904,206.945,24.82282,180.64959698015969,3.0,12.0,-9999,1523201504.313131,-1735.31884765625,-1364.788818359375,-1466.8817138671882,271.0248413085938,267.1920166015625,10,213314.814589375,1.111312866210938,0.0313873291015625,-0.1280364990234375,213314.814589375,-0.008442753287769202,0.01959607193302105,-0.008606271378700067,213314.795838375,2.324456549012274,1.551094357053484,-0.021940616802543018,0.01753650605678558,0.0538259781897068,-0.01757805049419403,0.007790207862854005,-0.01353126764297485,-0.0652497410774231,XArbitraryCorrectedZVertical,-0.6455550193786621,0.2709441781044006,0.6521748900413513,0.290714830160141,0.999564528465271,0.02193885669112206,-0.01969593949615955,0,0,0,-1,213262.33090175,automotive,2,2018-04-08 10:30:51.912 -0500,4
2018-04-08 10:31:44.497,1523201503.9991882,30.325741808107,-97.75611017278904,206.945,24.82282,180.64959698015969,3.0,12.0,-9999,1523201504.413248,-1735.509033203125,-1363.6953125,-1462.421875,270.98403930664057,267.15121459960943,10,213314.914594375,0.9872589111328124,0.0252685546875,-0.056396484375,213314.914594375,-0.02404408358567139,-0.0370778602766282,-0.01790203516362165,213314.895843375,2.3252327634836747,1.552627174912844,-0.02356549165864691,-0.002175859175622463,-0.02465441823005676,-0.03854041919112206,0.01359659433364868,0.007106870412826537,-0.06539404392242433,XArbitraryCorrectedZVertical,-0.6463840007781982,0.2703815400600433,0.6515606045722961,0.2907739281654358,0.9995564818382264,0.02356331050395966,-0.01816309243440628,0,0,0,-1,213262.33090175,automotive,2,2018-04-08 10:30:51.912 -0500,4
2018-04-08 10:31:44.597,1523201503.9991882,30.325741808107,-97.75611017278904,206.945,24.82282,180.64959698015969,3.0,12.0,-9999,1523201504.5132551,-1735.46484375,-1363.94189453125,-1462.9761962890618,270.95046997070307,267.11764526367193,10,213315.014599375,0.9545135498046876,0.0041961669921875,-0.0475616455078125,213315.014599375,-0.04927061069533797,-0.032748625608595386,-0.030621292529840086,213314.995848375,2.325191995319273,1.551609230990439,-0.0253416207878605,-0.02111430093646049,-0.01813559606671333,-0.04487748816609383,-0.044980525970458984,-0.05713823437690735,-0.02420103549957275,XArbitraryCorrectedZVertical,-0.6462914347648621,0.2696618437767029,0.651629626750946,0.2914924919605255,0.9994940757751464,0.0253389086574316,-0.019179742783308033,0,0,0,-1,213262.33090175,automotive,2,2018-04-08 10:30:51.912 -0500,4
2018-04-08 10:31:44.697,1523201503.9991882,30.325741808107,-97.75611017278904,206.945,24.82282,180.64959698015969,3.0,12.0,-9999,1523201504.613589,-1735.7264404296882,-1362.584838867188,-1465.879150390625,270.94970703125,267.1168823242188,10,213315.114604375,0.960418701171875,0.0178985595703125,-0.10357666015625,213315.114604375,-0.03040371226878062,-0.02182673566207142,-0.01685754338409257,213315.095853375,2.32522354233146,1.549594225638597,-0.02889247863659793,-0.01898596063256264,-0.037735067307949066,-0.0362306721508503,-0.0007004141807556152,-0.05791068077087402,-0.06677526235580444,XArbitraryCorrectedZVertical,-0.6461268663406372,0.2681869566440582,0.6517765522003174,0.2928870618343353,0.9993576407432556,0.028888458386063583,-0.02119165845215321,0,0,0,-1,213262.33090175,automotive,2,2018-04-08 10:30:51.912 -0500,4
2018-04-08 10:31:44.797,1523201503.9991882,30.325741808107,-97.75611017278904,206.945,24.82282,180.64959698015969,3.0,12.0,-9999,1523201504.7382731,-1735.3946533203118,-1364.370361328125,-1466.1844482421882,270.94326782226557,267.11044311523443,10,213315.214609375,1.059677124023438,0.01708984375,-0.15863037109375,213315.214609375,0.0074451331434255185,-0.02614691558239796,-0.002074868805280735,213315.195858375,2.325090066617144,1.548510415268608,-0.03178833732253869,0.009258955717086792,-0.01044778525829315,-0.008669605478644371,0.01010715961456299,0.007538914680480956,-0.1053516864776611,XArbitraryCorrectedZVertical,-0.6461524963378906,0.2671152353286743,0.6516908407211304,0.2939987778663635,0.9992464184761048,0.031782984733581536,-0.022272804751992233,0,0,0,-1,213262.33090175,automotive,2,2018-04-08 10:30:51.912 -0500,4
2018-04-08 10:31:44.897,1523201503.9991882,30.325741808107,-97.75611017278904,206.945,24.82282,180.64959698015969,3.0,12.0,-9999,1523201504.838309,-1735.623291015625,-1363.09765625,-1463.373046875,270.92529296875,267.0924682617188,10,213315.314614375,1.051925659179688,0.0359344482421875,-0.11309814453125,213315.314614375,0.0241351636949521,0.00874555470371121,0.013740047012045809,213315.295863375,2.32497248199007,1.5488377840830392,-0.0319475043704384,0.04371704533696175,0.07565521448850633,0.0035948341246694326,-0.040798425674438484,0.04293280839920044,-0.037044882774353034,XArbitraryCorrectedZVertical,-0.6462652087211609,0.2671488225460052,0.6515449285507202,0.2940441370010376,0.999248743057251,0.03194206953048706,-0.021945573389530182,0,0,0,-1,213262.33090175,automotive,2,2018-04-08 10:30:51.912 -0500,4
2018-04-08 10:31:44.998,1523201503.9991882,30.325741808107,-97.75611017278904,206.945,24.82282,180.64959698015969,3.0,12.0,-9999,1523201504.963339,-1735.4720458984382,-1364.310791015625,-1467.27392578125,270.95132446289057,267.11849975585943,10,213315.414619375,0.9480743408203124,-0.0293426513671875,-0.0064239501953125,213315.414619375,-0.0348261575749662,0.02396205822409695,0.00868749779194748,213315.395868375,2.324631616754879,1.5484151531976518,-0.02940643030599579,-0.007755630649626255,0.03314438462257385,0.007317780517041683,-0.05997079610824585,0.009767144918441772,0.0290987491607666,XArbitraryCorrectedZVertical,-0.6457337141036987,0.2680357396602631,0.6519968509674072,0.2934019863605499,0.9993171095848083,0.02940219268202782,-0.02236962504684925,0,0,0,-1,213262.33090175,automotive,2,2018-04-08 10:30:51.912 -0500,4
2018-04-08 10:31:45.097,1523201503.9991882,30.325741808107,-97.75611017278904,206.945,24.82282,180.64959698015969,3.0,12.0,-9999,1523201505.088196,-1735.66162109375,-1363.23046875,-1463.26708984375,270.9677734375,267.1349487304688,10,213315.51462479171,0.905548095703125,0.01385498046875,-0.01043701171875,213315.51462479171,-0.02127972237416914,0.06755560842371301,0.01376747757127363,213315.49587379172,2.3243695728828464,1.5480404090389779,-0.02602679780760314,-0.03934311494231224,0.003744766348972917,0.03443968668580055,-0.049558162689208984,-0.06847381591796875,0.01409447193145752,XArbitraryCorrectedZVertical,-0.6451113224029541,0.2691807150840759,0.6525641679763794,0.292460560798645,0.9994025230407716,0.0260238591581583,-0.02274624817073345,0,0,0,-1,213262.33090175,automotive,2,2018-04-08 10:30:51.912 -0500,4
2018-04-08 10:31:45.197,1523201503.9991882,30.325741808107,-97.75611017278904,206.945,24.82282,180.64959698015969,3.0,12.0,-9999,1523201505.188277,-1735.5972900390618,-1363.636108398438,-1466.956298828125,270.99124145507807,267.15841674804693,10,213315.61462979173,0.9920196533203124,-3.0517578125e-05,-0.09625244140625,213315.61462979173,-0.011668374000073171,-0.017388577705454367,0.03980120880734322,213315.5958787917,2.323962072778632,1.547751575324446,-0.02258001946599915,-0.0151989571750164,0.010310241021215921,0.04711692035198212,0.00918734073638916,0.01776614785194397,-0.057224392890930176,XArbitraryCorrectedZVertical,-0.6444857120513916,0.2704066336154938,0.653090238571167,0.2915332019329071,0.9994796514511108,0.022578101605176933,-0.02303683944046497,0,0,0,-1,213262.33090175,automotive,2,2018-04-08 10:30:51.912 -0500,4
2018-04-08 10:31:45.297,1523201504.9991882,30.325528823922483,-97.75611793218953,206.6148,24.45917,181.0303527056313,3.0,12.0,-9999,1523201505.188277,-1735.5972900390618,-1363.636108398438,-1466.956298828125,270.99124145507807,267.15841674804693,10,213315.71463479172,1.104171752929688,-0.01397705078125,-0.186248779296875,213315.71463479172,0.02121740440466129,-0.1524326828934104,0.07019560001230855,213315.69588379172,2.323105536572646,1.547726346537635,-0.018644077534254292,0.038626015186309814,-0.04196136817336082,0.04486460238695145,0.05483734607696533,-0.040386766195297234,-0.1729657649993896,XArbitraryCorrectedZVertical,-0.6438145637512207,0.2719758152961731,0.6535340547561646,0.2905603051185608,0.9995602369308472,0.01864299736917019,-0.02306392602622509,0,0,0,-1,213262.33090175,automotive,2,2018-04-08 10:30:51.912 -0500,4
2018-04-08 10:31:45.397,1523201504.9991882,30.325528823922483,-97.75611793218953,206.6148,24.45917,181.0303527056313,3.0,12.0,-9999,1523201505.313357,-1735.4154052734382,-1364.571044921875,-1464.472900390625,271.05490112304693,267.22207641601557,10,213315.81463979173,0.9816131591796876,-0.08740234375,-0.1138763427734375,213315.81463979173,0.01786528354057855,-0.03154647469253362,0.03217551334201033,213315.7958887917,2.3219347026905934,1.5466061004014566,-0.014237393131457991,0.04171578213572502,-0.0060165999457240105,0.03611214458942413,-0.035509586334228516,-0.08546492457389833,-0.0829160213470459,XArbitraryCorrectedZVertical,-0.642672598361969,0.2736406922340393,0.6543490886688232,0.2896887063980103,0.9996057152748108,0.01423691213130951,-0.02418540604412556,0,0,0,-1,213262.33090175,automotive,2,2018-04-08 10:30:51.912 -0500,4
2018-04-08 10:31:45.497,1523201504.9991882,30.325528823922483,-97.75611793218953,206.6148,24.45917,181.0303527056313,3.0,12.0,-9999,1523201505.438298,-1735.3619384765618,-1364.989013671875,-1472.481689453125,271.167236328125,267.3344116210938,10,213315.91464479172,1.04180908203125,-0.11895751953125,-0.1549072265625,213315.91464479172,0.006170810561822603,0.04250431731377365,0.008346346856308333,213315.89589379172,2.319960263429118,1.5446664801492318,-0.01152577484633582,0.033252760767936713,0.06039010360836983,-0.0027049868367612358,-0.040699243545532234,-0.1030477285385132,-0.07919102907180786,XArbitraryCorrectedZVertical,-0.6413852572441101,0.2748861312866211,0.6550691723823547,0.2897356748580933,0.9995920658111572,0.011525520123541359,-0.026125133037567142,0,0,0,-1,213262.33090175,automotive,2,2018-04-08 10:30:51.912 -0500,4
2018-04-08 10:31:45.598,1523201504.9991882,30.325528823922483,-97.75611793218953,206.6148,24.45917,181.0303527056313,3.0,12.0,-9999,1523201505.5633461,-1735.3525390625,-1364.916259765625,-1464.966796875,271.313232421875,267.4804077148438,10,213316.0146507917,1.13006591796875,-0.0347900390625,-0.159088134765625,213316.0146507917,0.04532460490816756,-0.07510460484965162,0.0386240916055282,213315.9958997917,2.3177633987094093,1.545553844899777,-0.009658809466854974,0.045803528279066086,0.04518641903996468,0.031574331223964684,-0.02398777008056641,-0.03540024161338806,-0.05787599086761475,XArbitraryCorrectedZVertical,-0.6411089301109314,0.2763331830501556,0.6547302603721619,0.2897370755672455,0.9996347427368164,0.009658658877015114,-0.025238623842597008,0,0,0,-1,213262.33090175,automotive,2,2018-04-08 10:30:51.912 -0500,4
2018-04-08 10:31:45.697,1523201504.9991882,30.325528823922483,-97.75611793218953,206.6148,24.45917,181.0303527056313,3.0,12.0,-9999,1523201505.688313,-1735.2723388671882,-1365.419189453125,-1469.367431640625,271.4635009765625,267.6306762695312,10,213316.11465579172,1.01025390625,-0.069580078125,-0.104888916015625,213316.11465579172,0.005396895949045576,-0.08603315269890079,0.0282084685822283,213316.09590479173,2.315956042354298,1.5450289893991742,-0.0071173308644748145,0.013466920703649521,-0.06922118365764618,0.03656771034002304,0.08641690015792848,-0.1090917587280273,-0.1382070779800415,XArbitraryCorrectedZVertical,-0.6403254866600037,0.2776713073253632,0.6549956202507019,0.2895904183387756,0.9996426701545716,0.0071172709576785564,-0.025763832032680508,0,0,0,-1,213262.33090175,automotive,2,2018-04-08 10:30:51.912 -0500,4
2018-04-08 10:31:45.797,1523201504.9991882,30.325528823922483,-97.75611793218953,206.6148,24.45917,181.0303527056313,3.0,12.0,-9999,1523201505.688313,-1735.2723388671882,-1365.419189453125,-1469.367431640625,271.4635009765625,267.6306762695312,10,213316.2146607917,0.9948577880859376,-0.0711517333984375,-0.087432861328125,213316.2146607917,-0.001059405481633521,0.010886469904025909,-0.006471215132783541,213316.1959097917,2.3137046358114173,1.5442605650553891,-0.007356550535460066,0.01978344097733498,-0.020238380879163742,-0.001192193711176515,0.045056939125061035,-0.08033925294876099,-0.09010624885559082,XArbitraryCorrectedZVertical,-0.6397951245307922,0.2782017886638641,0.6548811793327332,0.2905107438564301,0.9996207952499391,0.007356483954936266,-0.026531927287578583,0,0,0,-1,213262.33090175,automotive,2,2018-04-08 10:30:51.912 -0500,4
2018-04-08 10:31:45.897,1523201504.9991882,30.325528823922483,-97.75611793218953,206.6148,24.45917,181.0303527056313,3.0,12.0,-9999,1523201505.813431,-1735.2244873046882,-1365.63330078125,-1466.7569580078118,271.600830078125,267.7680053710938,10,213316.31466579172,1.048126220703125,-0.0537567138671875,-0.102264404296875,213316.31466579172,0.01484153043890259,0.01847301690133464,-0.04518425631872039,213316.29591479173,2.3115079213594694,1.544752538048334,-0.009153885432447412,0.009204085916280745,0.03746402263641357,-0.031390663236379616,0.0414578914642334,-0.1148361265659332,-0.096488356590271,XArbitraryCorrectedZVertical,-0.6399073600769043,0.2783858776092529,0.6541489958763123,0.291733980178833,0.9996187686920166,0.009153757244348526,-0.02603974752128124,0,0,0,-1,213262.33090175,automotive,2,2018-04-08 10:30:51.912 -0500,4
2018-04-08 10:31:45.997,1523201504.9991882,30.325528823922483,-97.75611793218953,206.6148,24.45917,181.0303527056313,3.0,12.0,-9999,1523201505.938294,-1735.2298583984382,-1365.232299804688,-1464.2197265625,271.72744750976557,267.89462280273443,10,213316.4146707917,1.055908203125,-0.01812744140625,-0.0711669921875,213316.4146707917,0.021097562155607718,-0.05660602160185223,0.03012248245766825,213316.3959197917,2.309493807763338,1.547809804572629,-0.01192830475127408,0.0365714393556118,-0.010415121912956241,0.005084352102130651,0.05734241008758545,-0.0386461615562439,-0.002712905406951904,XArbitraryCorrectedZVertical,-0.641021728515625,0.2785672545433044,0.6524797081947327,0.2928504347801208,0.9996644258499146,0.0119280219078064,-0.02298285625874996,0,0,0,-1,213262.33090175,automotive,2,2018-04-08 10:30:51.912 -0500,4
2018-04-08 10:31:46.097,1523201504.9991882,30.325528823922483,-97.75611793218953,206.6148,24.45917,181.0303527056313,3.0,12.0,-9999,1523201506.063323,-1735.159912109375,-1365.504028320312,-1465.90576171875,271.8956909179688,268.0628662109375,10,213316.5146771667,0.9504852294921876,-0.0476226806640625,-0.048675537109375,213316.5146771667,0.00935248911614027,0.08059311354019592,-0.028277710770570362,213316.4959261667,2.3068038377784683,1.5469562656923783,-0.01173554725401932,0.03021151572465897,0.03966658562421799,-0.02081565745174885,0.006502270698547363,-0.1076977849006653,-0.03368949890136719,XArbitraryCorrectedZVertical,-0.6403405070304871,0.279367059469223,0.6523864269256592,0.2937857508659363,0.99964702129364,0.0117352781817317,-0.0238361619412899,0,0,0,-1,213262.33090175,automotive,2,2018-04-08 10:30:51.912 -0500,4
2018-04-08 10:31:46.198,1523201505.999187,30.32531782558408,-97.75612857033958,206.3299,24.12086,182.01451466313839,3.0,12.0,-9999,1523201506.163392,-1735.280029296875,-1364.853759765625,-1465.5648193359382,272.048828125,268.2160034179688,10,213316.61468216672,0.932098388671875,-0.0669097900390625,-0.012298583984375,213316.61468216672,0.01807673853113085,-0.022914370651259782,-0.0353771656045036,213316.59593116672,2.303779364109808,1.5466338826039931,-0.01359927446013895,0.02841205149888992,-0.04969685524702072,-0.03862502798438072,0.000796198844909668,-0.09183067083358763,-0.0499235987663269,XArbitraryCorrectedZVertical,-0.64007967710495,0.2796767354011536,0.6517759561538696,0.2954100966453552,0.9996157288551332,0.01359885558485985,-0.02415786124765873,0,0,0,-1,213262.33090175,automotive,2,2018-04-08 10:30:51.912 -0500,4
2018-04-08 10:31:46.297,1523201505.999187,30.32531782558408,-97.75612857033958,206.3299,24.12086,182.01451466313839,3.0,12.0,-9999,1523201506.2882302,-1735.4808349609382,-1363.815185546875,-1467.9697265625,272.27682495117193,268.44400024414057,10,213316.7146871667,1.057342529296875,-0.0311126708984375,-0.0881500244140625,213316.7146871667,0.005708219480475839,-0.1090018518363982,-0.04349181744597503,213316.6959361667,2.3008509276504268,1.5448831710764692,-0.01733459602070495,0.02855946868658066,-0.1063489764928818,-0.037305593490600586,0.07330119609832764,-0.05685397982597351,-0.1317169666290283,XArbitraryCorrectedZVertical,-0.6396358013153076,0.279128760099411,0.651360809803009,0.2977950870990753,0.9995137453079224,0.01733372732996941,-0.025906354188919067,0,0,0,-1,213262.33090175,automotive,2,2018-04-08 10:30:51.912 -0500,4
2018-04-08 10:31:46.397,1523201505.999187,30.32531782558408,-97.75612857033958,206.3299,24.12086,182.01451466313839,3.0,12.0,-9999,1523201506.388249,-1735.5736083984382,-1363.204223632812,-1461.0311279296882,272.3984985351562,268.565673828125,10,213316.81469316673,1.032608032226562,0.104217529296875,-0.0934906005859375,213316.81469316673,0.02510668486061301,0.04578240229955218,0.008212123537368339,213316.79594216673,2.298081175847481,1.546256949114404,-0.02153730774052993,-0.00574601162225008,0.07889466732740402,-0.0014727967791259289,0.03063887357711792,-0.07115721702575684,-0.03262817859649658,XArbitraryCorrectedZVertical,-0.6402982473373413,0.2788414359092712,0.6498944759368896,0.2998373508453369,0.9994667172431946,0.021535642445087433,-0.02453121542930603,0,0,0,-1,213262.33090175,automotive,2,2018-04-08 10:30:51.912 -0500,4
2018-04-08 10:31:46.497,1523201505.999187,30.32531782558408,-97.75612857033958,206.3299,24.12086,182.01451466313839,3.0,12.0,-9999,1523201506.488338,-1734.9447021484382,-1366.617919921875,-1463.3800048828118,272.5635375976562,268.730712890625,10,213316.9146981667,1.145462036132812,-0.07391357421875,-0.1451263427734375,213316.9146981667,0.0472918820054091,0.006579605789149766,0.014674816554663631,213316.89594716672,2.2950724133794456,1.547447365623,-0.02102556343307076,0.051183048635721214,0.025555280968546867,0.01233409531414509,0.033971428871154785,-0.07195785641670227,-0.05870485305786133,XArbitraryCorrectedZVertical,-0.6401910185813904,0.2801510691642761,0.649137020111084,0.3004859983921051,0.9995063543319702,0.02102401480078697,-0.02334167622029781,0,0,0,-1,213262.33090175,automotive,2,2018-04-08 10:30:51.912 -0500,4
2018-04-08 10:31:46.597,1523201505.999187,30.32531782558408,-97.75612857033958,206.3299,24.12086,182.01451466313839,3.0,12.0,-9999,1523201506.588343,-1734.840576171875,-1367.191284179688,-1464.28125,272.72280883789057,268.88998413085943,10,213317.01470316673,0.9935455322265624,-0.0680999755859375,-0.0706634521484375,213317.01470316673,0.0175947063738265,0.06215711457801339,0.03712153611850549,213316.9959521667,2.29217906884121,1.5501910558324208,-0.01840566242286178,0.0425967238843441,0.04520276188850403,0.044448371976614005,-0.01394617557525635,-0.06901803612709045,0.01013278961181641,XArbitraryCorrectedZVertical,-0.6402970552444458,0.2823464572429657,0.6482093930244446,0.3002074360847473,0.9996181726455688,0.018404623493552208,-0.02060031890869141,0,0,0,-1,213262.33090175,automotive,2,2018-04-08 10:30:51.912 -0500,4
2018-04-08 10:31:46.697,1523201505.999187,30.32531782558408,-97.75612857033958,206.3299,24.12086,182.01451466313839,3.0,12.0,-9999,1523201506.688365,-1735.294921875,-1364.8017578125,-1467.304443359375,272.858154296875,269.0253295898438,10,213317.11470916672,0.8544769287109375,0.001129150390625,-0.029266357421875,213317.11470916672,0.009495234550568516,-0.034833880742127434,0.0204549413845716,213317.09595816673,2.289578793963425,1.5499230416915508,-0.01639475056659043,0.01234833709895611,0.0048170406371355065,-0.003408970776945353,-0.08537149429321289,0.02687990665435791,0.026423215866088867,XArbitraryCorrectedZVertical,-0.6395513415336609,0.2837949991226196,0.6482006907463074,0.3004498779773712,0.999647617340088,0.01639401540160179,-0.02086896076798439,0,0,0,-1,213262.33090175,automotive,2,2018-04-08 10:30:51.912 -0500,4
2018-04-08 10:31:46.798,1523201505.999187,30.32531782558408,-97.75612857033958,206.3299,24.12086,182.01451466313839,3.0,12.0,-9999,1523201506.688365,-1735.294921875,-1364.8017578125,-1467.304443359375,272.858154296875,269.0253295898438,10,213317.2147141667,1.018447875976562,-0.0729827880859375,-0.1350555419921875,213317.2147141667,0.0287898366481926,-0.1067871670738883,-0.02435807027819174,213317.1959631667,2.286737240215234,1.545712668032832,-0.014629608728916691,0.03383004292845726,-0.1346486955881119,-0.01900189183652401,0.02819287776947021,-0.1733205020427704,-0.14890241622924802,XArbitraryCorrectedZVertical,-0.6375248432159424,0.2846452295780182,0.6493770480155945,0.3014104068279266,0.999578058719635,0.014629086479544641,-0.02507833577692509,0,0,0,-1,213262.33090175,automotive,2,2018-04-08 10:30:51.912 -0500,4
2018-04-08 10:31:46.897,1523201505.999187,30.32531782558408,-97.75612857033958,206.3299,24.12086,182.01451466313839,3.0,12.0,-9999,1523201506.813637,-1735.157958984375,-1365.555908203125,-1468.4447021484382,273.03759765625,269.2047729492188,10,213317.31471916672,0.9895477294921876,-0.06427001953125,-0.08258056640625,213317.31471916672,0.02960103551623073,-0.03921637863196182,-0.007515440596203609,213317.29596816673,2.284303806724845,1.544645243008196,-0.01785221846259166,0.03556011989712715,-0.01587238535284996,-0.0034624328836798672,-0.06491255760192871,-0.041258245706558234,-0.05765736103057861,XArbitraryCorrectedZVertical,-0.6373029947280884,0.2842057943344116,0.6488738059997559,0.3033711314201355,0.9994981288909912,0.017851270735263818,-0.026143919676542282,0,0,0,-1,213262.33090175,automotive,2,2018-04-08 10:30:51.912 -0500,4
2018-04-08 10:31:46.997,1523201505.999187,30.32531782558408,-97.75612857033958,206.3299,24.12086,182.01451466313839,3.0,12.0,-9999,1523201506.938415,-1735.5604248046882,-1363.435668945312,-1467.4681396484382,273.15634155273443,269.32351684570307,10,213317.41472516672,0.990478515625,-0.0439605712890625,-0.0766754150390625,213317.41472516672,0.0053766559247609745,-0.02724946427369077,-0.011701663513699159,213317.39597416672,2.2821143068205267,1.542168396621924,-0.021174037437949732,0.026147559285163883,-0.007190988399088383,-0.02701580710709095,0.002236306667327881,-0.01833429932594299,-0.09345269203186037,XArbitraryCorrectedZVertical,-0.6366737484931946,0.2834391295909882,0.6488370895385742,0.305481493473053,0.9993659257888794,0.02117245458066463,-0.028617596253752712,0,0,0,-1,213262.33090175,automotive,2,2018-04-08 10:30:51.912 -0500,4
2018-04-08 10:31:47.097,1523201505.999187,30.32531782558408,-97.75612857033958,206.3299,24.12086,182.01451466313839,3.0,12.0,-9999,1523201507.038423,-1735.5458984375,-1363.53515625,-1468.4700927734382,273.2496337890625,269.4168090820312,10,213317.5147305,1.043487548828125,0.06048583984375,-0.0575103759765625,213317.5147305,-5.326322180158476e-05,0.03920332914262043,-0.015175757155707532,213317.4959795,2.2803757477581383,1.5425602073329958,-0.02429207784166934,0.0093667171895504,-0.030078116804361336,-0.02573561854660511,0.1092751622200012,-0.00394970178604126,-0.1087388396263123,XArbitraryCorrectedZVertical,-0.6370095014572144,0.2830315828323364,0.6479815840721129,0.3069720268249512,0.9993063807487488,0.0242896880954504,-0.02822403609752655,0,0,0,-1,213262.33090175,automotive,2,2018-04-08 10:30:51.912 -0500,4
2018-04-08 10:31:47.197,1523201506.999187,30.32510476611765,-97.75613284173619,206.0875,23.02263,183.1019354205178,3.0,12.0,-9999,1523201507.16333,-1735.71533203125,-1362.578491210938,-1465.5826416015618,273.3241577148438,269.4913330078125,10,213317.6147365,1.031356811523438,0.0389556884765625,-0.0468902587890625,213317.6147365,-0.01775502867144927,-0.01638483229060351,-0.02660631087043663,213317.5959855,2.2791732988793196,1.5450551503373429,-0.0256435167443151,-0.01293926779180765,0.035290829837322235,-0.018384359776973717,0.06326675415039062,-0.08737775683403015,-0.02102303504943848,XArbitraryCorrectedZVertical,-0.6378437280654907,0.2833556830883026,0.6467993855476379,0.3074336647987366,0.999339997768402,0.0256407056003809,-0.02572987042367458,0,0,0,-1,213262.33090175,automotive,2,2018-04-08 10:30:51.912 -0500,4
2018-04-08 10:31:47.297,1523201506.999187,30.32510476611765,-97.75613284173619,206.0875,23.02263,183.1019354205178,3.0,12.0,-9999,1523201507.288382,-1735.8482666015618,-1361.87451171875,-1466.1883544921882,273.3380737304688,269.5052490234375,10,213317.7147415,0.9779815673828124,0.04046630859375,-0.0204925537109375,213317.7147415,-0.02410506997463421,-0.03379072054314339,-0.002913231916437679,213317.6959905,2.2790018686360516,1.54690285170401,-0.02811285350738197,0.0008572693914175035,-0.01045798882842064,-0.01612789928913116,0.045647978782653816,-0.036303102970123284,-0.04166996479034424,XArbitraryCorrectedZVertical,-0.6387754082679749,0.2828870713710785,0.6458122730255127,0.3080057799816132,0.9993197321891784,0.02810915000736713,-0.02388176508247852,0,0,0,-1,213262.33090175,automotive,2,2018-04-08 10:30:51.912 -0500,4
2018-04-08 10:31:47.399,1523201506.999187,30.32510476611765,-97.75613284173619,206.0875,23.02263,183.1019354205178,3.0,12.0,-9999,1523201507.288382,-1735.8482666015618,-1361.87451171875,-1466.1883544921882,273.3380737304688,269.5052490234375,10,213317.8147475,0.9584503173828124,0.0066680908203125,-0.05975341796875,213317.8147475,-0.020895428228870708,-0.003331081891471111,-0.041647045758877135,213317.7959965,2.278573173905291,1.5459079928264159,-0.03005237818460028,-0.030676068738102913,-0.0072233909741044044,-0.029872288927435868,-0.028963029384613037,-0.06206077337265015,-0.037335574626922614,XArbitraryCorrectedZVertical,-0.6386748552322388,0.2822360098361969,0.6457714438438416,0.3088956475257874,0.9992389082908629,0.030047854408621788,-0.02487452886998653,0,0,0,-1,213262.33090175,automotive,2,2018-04-08 10:30:51.912 -0500,4
2018-04-08 10:31:47.497,1523201506.999187,30.32510476611765,-97.75613284173619,206.0875,23.02263,183.1019354205178,3.0,12.0,-9999,1523201507.413883,-1735.701171875,-1362.636108398438,-1464.4918212890618,273.3514404296875,269.5186157226562,10,213317.91475250002,1.000595092773438,-0.0155181884765625,-0.038177490234375,213317.91475250002,-0.013639379522840821,0.038073616208208816,-0.04187581129651495,213317.89600150002,2.2780421724490543,1.5448818730196983,-0.03330753876635626,0.01574212126433849,-0.0137694776058197,-0.056930102407932275,-0.02916967868804932,0.0009393393993377686,-0.03658759593963623,XArbitraryCorrectedZVertical,-0.6387399435043335,0.2811808884143829,0.6455249786376953,0.3102357685565948,0.9991099238395692,0.03330137953162193,-0.0258971843868494,0,0,0,-1,213262.33090175,automotive,2,2018-04-08 10:30:51.912 -0500,4
2018-04-08 10:31:47.597,1523201506.999187,30.32510476611765,-97.75613284173619,206.0875,23.02263,183.1019354205178,3.0,12.0,-9999,1523201507.538426,-1735.8909912109382,-1361.676879882812,-1468.101318359375,273.37771606445307,269.54489135742193,10,213318.0147585,0.944732666015625,0.0009613037109375,-0.0406494140625,213318.0147585,-0.02623320200171653,-0.004395281063066775,-0.019104186079683408,213317.9960075,2.277695253930276,1.5439684428780218,-0.035313518376040784,-0.02658157795667648,-0.0017377608455717561,-0.0009883255697786806,-0.02381241321563721,-0.002835482358932495,-0.03389155864715576,XArbitraryCorrectedZVertical,-0.6386862397193909,0.2804922759532928,0.6454586386680603,0.3111062049865723,0.9990168809890748,0.0353061780333519,-0.02680794149637222,0,0,0,-1,213262.33090175,automotive,2,2018-04-08 10:30:51.912 -0500,4
2018-04-08 10:31:47.697,1523201506.999187,30.32510476611765,-97.75613284173619,206.0875,23.02263,183.1019354205178,3.0,12.0,-9999,1523201507.6384768,-1735.9573974609382,-1361.293334960938,-1466.4307861328118,273.3931274414062,269.560302734375,10,213318.1147635,0.8863372802734375,0.037261962890625,0.0011749267578125,213318.1147635,-0.02423290170695801,0.0054392402103778355,0.003344131380812499,213318.0960125,2.277177114814367,1.5422983163334607,-0.03595535614439981,0.0008586607873439789,-0.01807762309908867,-0.01073665823787451,-0.03442466259002686,0.05139368772506714,-0.04498004913330078,XArbitraryCorrectedZVertical,-0.638167142868042,0.2801871299743652,0.6458137631416321,0.3117091059684753,0.9989479780197144,0.035947609692811966,-0.02847573906183243,0,0,0,-1,213262.33090175,automotive,2,2018-04-08 10:30:51.912 -0500,4
2018-04-08 10:31:47.797,1523201506.999187,30.32510476611765,-97.75613284173619,206.0875,23.02263,183.1019354205178,3.0,12.0,-9999,1523201507.7385561,-1735.9310302734382,-1361.439208984375,-1466.7125244140618,273.42333984375,269.5905151367188,10,213318.2147695,0.9407958984375,0.0070953369140625,-0.0641632080078125,213318.2147695,-0.02643986330230668,0.02397830350674644,0.01827913877397687,213318.1960185,2.276713694544313,1.5414239047716307,-0.03478223002279415,0.002995315007865429,-0.056183729320764535,0.009779268875718115,0.01658469438552856,-0.0043339431285858146,-0.0990980863571167,XArbitraryCorrectedZVertical,-0.6376500725746155,0.2805836200714111,0.6461983323097229,0.3116133511066437,0.9989640116691588,0.03477521613240242,-0.029350433498620987,0,0,0,-1,213262.33090175,automotive,2,2018-04-08 10:30:51.912 -0500,4
2018-04-08 10:31:47.897,1523201506.999187,30.32510476611765,-97.75613284173619,206.0875,23.02263,183.1019354205178,3.0,12.0,-9999,1523201507.8634038,-1735.9488525390618,-1361.302001953125,-1464.194580078125,273.4472045898438,269.6143798828125,10,213318.3147745,0.9351959228515624,0.0308380126953125,-0.0298004150390625,213318.3147745,-0.01893001534439223,-0.020695424831005758,0.01199913860746101,213318.29602349998,2.276269298184828,1.541173756072685,-0.032591634162589665,-0.01610508374869823,-0.004980450496077538,0.015032830648124218,-0.038627028465271,-0.02474284172058105,0.0208134651184082,XArbitraryCorrectedZVertical,-0.6371890902519226,0.2814050614833832,0.6465407013893127,0.3111050724983215,0.9990304708480836,0.03258586302399635,-0.02960250899195671,0,0,0,-1,213262.33090175,automotive,2,2018-04-08 10:30:51.912 -0500,4
2018-04-08 10:31:47.999,1523201506.999187,30.32510476611765,-97.75613284173619,206.0875,23.02263,183.1019354205178,3.0,12.0,-9999,1523201507.9638,-1735.736328125,-1363.052978515625,-1466.95849609375,273.47152709960943,269.63870239257807,10,213318.4147805,0.9641876220703124,0.0109100341796875,-0.0466766357421875,213318.4147805,-0.0186330728828484,-0.09372782403646672,-0.01661439677656833,213318.3960295,2.275755362827165,1.539534833923429,-0.030573564031709487,-0.010724338702857491,-0.02787735313177109,-0.00204985192976892,-0.04190617799758911,-0.06335994601249695,-0.0313345193862915,XArbitraryCorrectedZVertical,-0.6362929344177246,0.2819758951663971,0.6472875475883484,0.3108692169189453,0.9990442395210266,0.03056880086660385,-0.03124179318547249,0,0,0,-1,213262.33090175,automotive,2,2018-04-08 10:30:51.912 -0500,4
2018-04-08 10:31:48.097,1523201506.999187,30.32510476611765,-97.75613284173619,206.0875,23.02263,183.1019354205178,3.0,12.0,-9999,1523201508.088399,-1735.2003173828118,-1365.932739257812,-1466.880859375,273.5030517578125,269.6702270507812,10,213318.5147852917,1.110092163085938,0.0002899169921875,-0.20660400390625,213318.5147852917,0.018939869040425533,-0.02175775978983837,0.01819418393520334,213318.49603429172,2.2750967797710877,1.5382753185956384,-0.029708278404882136,0.04299312829971313,-0.04419164732098579,-0.0012449525529518721,0.05237650871276855,-0.03620412945747375,-0.1820834279060364,XArbitraryCorrectedZVertical,-0.6356659531593323,0.2822735011577606,0.6477163434028625,0.3109889924526215,0.999030351638794,0.029703909531235688,-0.03250093385577202,0,0,0,-1,213262.33090175,automotive,2,2018-04-08 10:30:51.912 -0500,4
2018-04-08 10:31:48.197,1523201507.999187,30.32489985306386,-97.75614504040381,205.8839,23.02263,183.3360469845092,3.0,12.0,-9999,1523201508.188406,-1735.193359375,-1365.968627929688,-1466.7974853515618,273.5311279296875,269.6983032226562,10,213318.61479029173,1.105850219726562,-0.0280609130859375,-0.189300537109375,213318.61479029173,0.01789883937031355,-0.01632011747611458,0.010675281229582629,213318.59603929173,2.274646673642688,1.5397261969209808,-0.03008092302772437,0.038744643330574036,-0.02132254280149937,-0.00774818193167448,0.02826333045959473,0.030363678932189938,-0.1548619866371155,XArbitraryCorrectedZVertical,-0.6361265182495117,0.2825199365615845,0.647128701210022,0.3110465407371521,0.9990651607513428,0.03007638640701771,-0.03105107694864273,0,0,0,-1,213262.33090175,automotive,2,2018-04-08 10:30:51.912 -0500,4
2018-04-08 10:31:48.297,1523201507.999187,30.32489985306386,-97.75614504040381,205.8839,23.02263,183.3360469845092,3.0,12.0,-9999,1523201508.188406,-1735.193359375,-1365.968627929688,-1466.7974853515618,273.5311279296875,269.6983032226562,10,213318.71479629172,1.050689697265625,0.0088043212890625,-0.1456451416015625,213318.71479629172,-0.002879143454484665,-0.1035040220820386,0.00047537425457914404,213318.69604529173,2.273891444005027,1.5396826286863958,-0.031467588845909236,0.021992594003677368,-0.03877759724855423,-0.01935346983373165,0.037111937999725335,-0.0607745349407196,-0.1077769994735718,XArbitraryCorrectedZVertical,-0.6362082362174988,0.2822985053062439,0.6468151211738586,0.3117314875125885,0.9990208745002748,0.03146239742636681,-0.03109326772391796,0,0,0,-1,213262.33090175,automotive,2,2018-04-08 10:30:51.912 -0500,4
2018-04-08 10:31:48.397,1523201507.999187,30.32489985306386,-97.75614504040381,205.8839,23.02263,183.3360469845092,3.0,12.0,-9999,1523201508.31355,-1735.51123046875,-1364.32470703125,-1470.6043701171882,273.5730590820312,269.740234375,10,213318.8148012917,0.9979248046875,-0.0215301513671875,-0.1631317138671875,213318.8148012917,0.008512794424438284,0.009767143297865606,-0.03438939915619321,213318.7960502917,2.273245092469504,1.5375952613743693,-0.03345426189309758,0.01454503089189529,0.002608430571854115,-0.02806063927710056,-0.06903421878814697,-0.07325819134712219,-0.06556320190429688,XArbitraryCorrectedZVertical,-0.6357317566871643,0.2815260887145996,0.6470770239830017,0.312856912612915,0.9988895654678344,0.03344802185893059,-0.03317638859152794,0,0,0,-1,213262.33090175,automotive,2,2018-04-08 10:30:51.912 -0500,4
2018-04-08 10:31:48.497,1523201507.999187,30.32489985306386,-97.75614504040381,205.8839,23.02263,183.3360469845092,3.0,12.0,-9999,1523201508.413608,-1735.5574951171882,-1364.085083007812,-1471.14306640625,273.5951538085938,269.7623291015625,10,213318.91480729173,1.071884155273438,-0.037384033203125,-0.1284637451171875,213318.91480729173,0.002253566914425052,-0.04141322021516818,-0.010547715813367829,213318.8960562917,2.2725347720910207,1.5358586161329966,-0.03548183758227252,0.02928986214101315,-0.02677580714225769,-0.00873698852956295,0.06013822555541992,0.03555527329444885,-0.1787602305412292,XArbitraryCorrectedZVertical,-0.6353656649589539,0.2808133959770203,0.6472097635269165,0.3139646649360657,0.99876070022583,0.03547439351677895,-0.034908615052700036,0,0,0,-1,213262.33090175,automotive,2,2018-04-08 10:30:51.912 -0500,4
2018-04-08 10:31:48.597,1523201507.999187,30.32489985306386,-97.75614504040381,205.8839,23.02263,183.3360469845092,3.0,12.0,-9999,1523201508.538507,-1735.4727783203118,-1364.599487304688,-1474.801025390625,273.6510009765625,269.8181762695312,10,213319.01481329172,1.007095336914062,0.0299530029296875,-0.081451416015625,213319.01481329172,-0.003201385946384252,0.001102548691292805,0.01180339626734019,213318.99606229173,2.271872291893167,1.538138041413446,-0.036752079672117716,0.01551389880478382,0.004815971944481134,-0.006647773552685976,0.042666256427764886,0.02587828040122986,-0.1062397956848145,XArbitraryCorrectedZVertical,-0.6361947059631348,0.2809645533561707,0.6461877822875977,0.3142556250095367,0.9987918734550476,0.036743804812431335,-0.03263043239712715,0,0,0,-1,213262.33090175,automotive,2,2018-04-08 10:30:51.912 -0500,4
2018-04-08 10:31:48.697,1523201507.999187,30.32489985306386,-97.75614504040381,205.8839,23.02263,183.3360469845092,3.0,12.0,-9999,1523201508.638553,-1735.918701171875,-1362.059936523438,-1465.823974609375,273.6763916015625,269.8435668945312,10,213319.1148182917,0.94012451171875,0.0306396484375,-0.117095947265625,213319.1148182917,0.00303999838432545,0.08385442061110696,-0.03146711249204925,213319.0960672917,2.27081121616369,1.5382038809913232,-0.03674271889436576,0.01750543341040611,0.07125303149223328,-0.02516928128898144,-0.03926050662994385,-0.09973800182342528,0.008806705474853516,XArbitraryCorrectedZVertical,-0.6360654830932617,0.281315416097641,0.6460013389587402,0.3145861029624939,0.9987941384315492,0.0367344506084919,-0.032564677298069,0,0,0,-1,213262.33090175,automotive,2,2018-04-08 10:30:51.912 -0500,4
2018-04-08 10:31:48.797,1523201507.999187,30.32489985306386,-97.75614504040381,205.8839,23.02263,183.3360469845092,3.0,12.0,-9999,1523201508.763525,-1735.9771728515618,-1361.794311523438,-1468.783935546875,273.72653198242193,269.89370727539057,10,213319.21482429173,0.952484130859375,0.011474609375,-0.0843048095703125,213319.21482429173,-0.028257470746285762,-0.001159806654729508,-0.04482499588766869,213319.1960732917,2.270235024917428,1.5366386068025,-0.03776323992923904,-0.015923332422971732,0.001485505839809775,-0.04286788403987885,-0.0850379467010498,-0.05287572741508484,-0.05002546310424805,XArbitraryCorrectedZVertical,-0.6356275677680969,0.2809167802333832,0.6462522745132446,0.3153108060359955,0.9987037181854248,0.03775426372885704,-0.03412671387195587,0,0,0,-1,213262.33090175,automotive,2,2018-04-08 10:30:51.912 -0500,4
2018-04-08 10:31:48.897,1523201507.999187,30.32489985306386,-97.75614504040381,205.8839,23.02263,183.3360469845092,3.0,12.0,-9999,1523201508.863568,-1735.623291015625,-1363.756958007812,-1472.6695556640618,273.74826049804693,269.91543579101557,10,213319.31483029173,1.002059936523438,0.05328369140625,-0.108795166015625,213319.31483029173,-0.02744360871715754,0.059879312897668624,-0.02366697997531617,213319.29607929173,2.2698198084900745,1.536700164121037,-0.03887581105525022,-0.020303938537836068,0.038551747798919685,-0.02264306880533695,-0.031057715415954586,-0.030260056257247918,-0.07145076990127562,XArbitraryCorrectedZVertical,-0.6357512474060059,0.2806928157806396,0.645997166633606,0.3157835304737091,0.998663365840912,0.03886602073907852,-0.03406378999352455,0,0,0,-1,213262.33090175,automotive,2,2018-04-08 10:30:51.912 -0500,4
2018-04-08 10:31:48.997,1523201507.999187,30.32489985306386,-97.75614504040381,205.8839,23.02263,183.3360469845092,3.0,12.0,-9999,1523201508.988466,-1735.8687744140618,-1362.112182617188,-1467.3021240234382,273.73513793945307,269.90231323242193,10,213319.4148352917,1.00927734375,0.0467376708984375,-0.09185791015625,213319.4148352917,-0.02666356883387333,0.1002499055460708,0.02330186058986631,213319.39608429171,2.269730141303095,1.5395098801254452,-0.03931418618964663,-0.010944553650915621,0.04186222329735756,0.0072892955504357815,0.05047142505645752,0.009737670421600342,-0.09716081619262697,XArbitraryCorrectedZVertical,-0.6367092728614807,0.281020849943161,0.6450221538543701,0.3155548572540283,0.998738169670105,0.039304058998823166,-0.03125716745853424,0,0,0,-1,213262.33090175,automotive,2,2018-04-08 10:30:51.912 -0500,4
2018-04-08 10:31:49.097,1523201507.999187,30.32489985306386,-97.75614504040381,205.8839,23.02263,183.3360469845092,3.0,12.0,-9999,1523201508.988466,-1735.8687744140618,-1362.112182617188,-1467.3021240234382,273.73513793945307,269.90231323242193,10,213319.51484266671,1.078720092773438,0.0020599365234375,-0.161895751953125,213319.51484266671,-0.001121457135032367,-0.02283341055412137,0.03761528618460618,213319.49609166672,2.269699124919935,1.542814964648172,-0.036813468141268235,0.01328666508197784,-0.01473359670490026,0.043819956481456764,0.05467289686203003,0.009978294372558594,-0.146281361579895,XArbitraryCorrectedZVertical,-0.6374065279960632,0.2823712825775146,0.6443477272987366,0.3143172562122345,0.9989312291145324,0.03680515289306641,-0.027958754450082782,0,0,0,-1,213262.33090175,automotive,2,2018-04-08 10:30:51.912 -0500,4
2018-04-08 10:31:49.197,1523201508.9991882,30.324697695065236,-97.75616614446864,205.6528,22.35155,183.91669502623031,3.0,12.0,-9999,1523201509.113547,-1735.980224609375,-1361.50146484375,-1466.53125,273.72409057617193,269.89126586914057,10,213319.6148486667,0.9439544677734376,0.057525634765625,-0.0753021240234375,213319.6148486667,-0.016822922289921542,-0.05334870927257631,0.03677772202177627,213319.5960976667,2.270158709209301,1.5447726347917352,-0.034454251547986266,0.01974400505423546,-0.0583193302154541,0.036469127982854836,0.014466345310211182,0.03353047370910645,-0.1144823431968689,XArbitraryCorrectedZVertical,-0.6377586126327515,0.2833042442798615,0.6441567540168762,0.3131530582904816,0.9990682005882264,0.03444743528962135,-0.02600531466305256,0,0,0,-1,213262.33090175,automotive,2,2018-04-08 10:30:51.912 -0500,4
2018-04-08 10:31:49.297,1523201508.9991882,30.324697695065236,-97.75616614446864,205.6528,22.35155,183.91669502623031,3.0,12.0,-9999,1523201509.213618,-1735.796630859375,-1362.44482421875,-1463.9417724609382,273.7103881835938,269.8775634765625,10,213319.71485366672,0.9162445068359376,-0.0070343017578125,-0.1720428466796875,213319.71485366672,-0.02315378883325791,0.01631479115393442,-0.01278530376125241,213319.69610266673,2.270619556066042,1.539989473278439,-0.03230047702860852,-0.01604419760406017,-0.0060902354307472715,-0.003187357448041439,-0.1046863794326782,-0.05359610915184021,-0.07675802707672119,XArbitraryCorrectedZVertical,-0.6359665989875793,0.2831139862537384,0.6460802555084229,0.3130066692829132,0.999004065990448,0.032294861972332,-0.03078591078519821,0,0,0,-1,213262.33090175,automotive,2,2018-04-08 10:30:51.912 -0500,4
2018-04-08 10:31:49.397,1523201508.9991882,30.324697695065236,-97.75616614446864,205.6528,22.35155,183.91669502623031,3.0,12.0,-9999,1523201509.338589,-1735.5849609375,-1363.643310546875,-1467.801025390625,273.6310424804688,269.7982177734375,10,213319.81485966672,0.9396209716796876,0.06201171875,-0.128173828125,213319.81485966672,-0.030623689374821163,0.05444353479670788,-0.01290647759085101,213319.79610866672,2.272138639462813,1.5374278833742618,-0.0340734650954336,-0.0161520428955555,0.05816717445850372,-0.022762663662433617,-0.0788801908493042,0.1047575771808624,-0.06278747320175171,XArbitraryCorrectedZVertical,-0.6356121897697449,0.281648188829422,0.6468629837036133,0.3134320378303528,0.9988631010055542,0.03406687080860138,-0.0333428829908371,0,0,0,-1,213262.33090175,automotive,2,2018-04-08 10:30:51.912 -0500,4
2018-04-08 10:31:49.497,1523201508.9991882,30.324697695065236,-97.75616614446864,205.6528,22.35155,183.91669502623031,3.0,12.0,-9999,1523201509.438589,-1735.3148193359382,-1365.125366210938,-1469.7677001953118,273.54080200195307,269.70797729492193,10,213319.9148656667,0.9089813232421876,0.110626220703125,-0.0721282958984375,213319.9148656667,-0.04922027695073547,-0.04038577266661562,-0.039160984881288184,213319.8961146667,2.274273080176129,1.536468758750251,-0.03595310968365515,-0.04100792482495308,-0.05954281240701675,-0.04673131555318832,-7.730722427368164e-05,0.0847974419593811,-0.1133759021759033,XArbitraryCorrectedZVertical,-0.6358755230903625,0.2802017033100128,0.6472169756889343,0.3134638369083405,0.9987650513648988,0.035945363342761986,-0.03429865092039108,0,0,0,-1,213262.33090175,automotive,2,2018-04-08 10:30:51.912 -0500,4
2018-04-08 10:31:49.597,1523201508.9991882,30.324697695065236,-97.75616614446864,205.6528,22.35155,183.91669502623031,3.0,12.0,-9999,1523201509.538638,-1735.216796875,-1365.651123046875,-1469.753173828125,273.42044067382807,269.58761596679693,10,213320.01487166673,0.901092529296875,0.0554962158203125,-0.1368865966796875,213320.01487166673,-0.04314294334317465,0.0119480059145315,-0.011567972826977191,213319.9961206667,2.275882432927759,1.533638621797813,-0.03702651107029588,-0.025347571820020683,-0.06710883229970932,-0.0039291614666581145,-0.026334881782531742,-0.0227205753326416,-0.1150674223899841,XArbitraryCorrectedZVertical,-0.6353398561477661,0.2788932025432587,0.6482059359550476,0.3136734664440155,0.9986249208450316,0.03701804950833321,-0.037123698741197586,0,0,0,-1,213262.33090175,automotive,2,2018-04-08 10:30:51.912 -0500,4
2018-04-08 10:31:49.697,1523201508.9991882,30.324697695065236,-97.75616614446864,205.6528,22.35155,183.91669502623031,3.0,12.0,-9999,1523201509.6386962,-1735.0906982421882,-1366.35791015625,-1471.5765380859382,273.32064819335943,269.48782348632807,10,213320.11487666672,1.020370483398438,0.1164398193359375,-0.094482421875,213320.11487666672,-0.02639192640268525,-0.01740002929814171,0.03667945137755234,213320.09612566672,2.277976079599099,1.5330417877906952,-0.03682071391327029,-0.011890316382050509,-0.02130641974508762,0.024716030806303017,0.01561117172241211,0.09363499283790587,-0.1245114207267761,XArbitraryCorrectedZVertical,-0.6354081034660339,0.2782023549079895,0.6487545967102051,0.3130134046077728,0.9986099600791932,0.036812394857406616,-0.03771998360753059,0,0,0,-1,213262.33090175,automotive,2,2018-04-08 10:30:51.912 -0500,4
2018-04-08 10:31:49.797,1523201508.9991882,30.324697695065236,-97.75616614446864,205.6528,22.35155,183.91669502623031,3.0,12.0,-9999,1523201509.7637901,-1735.638671875,-1363.326049804688,-1465.988037109375,273.17727661132807,269.34445190429693,10,213320.2148826667,0.9864044189453124,0.050018310546875,-0.115081787109375,213320.2148826667,-0.02113777588806792,-0.0641978949213411,0.07543190734762235,213320.19613166671,2.280057576129861,1.533241161767881,-0.03278462457715019,-0.005750584416091442,-0.01797542162239552,0.07288800925016402,-0.01876235008239746,0.05651566386222839,-0.0832013487815857,XArbitraryCorrectedZVertical,-0.6351772546768188,0.2789027988910675,0.649624228477478,0.311049222946167,0.99875807762146,0.032778751105070114,-0.037526167929172516,0,0,0,-1,213262.33090175,automotive,2,2018-04-08 10:30:51.912 -0500,4
2018-04-08 10:31:49.897,1523201508.9991882,30.324697695065236,-97.75616614446864,205.6528,22.35155,183.91669502623031,3.0,12.0,-9999,1523201509.888527,-1735.779296875,-1362.5908203125,-1467.207275390625,273.0390014648438,269.2061767578125,10,213320.31488866673,0.9354095458984376,0.04095458984375,-0.10504150390625,213320.31488866673,-0.01581092107569143,-0.0729258727618578,0.06364875110456678,213320.2961376667,2.282363540351871,1.531305313331218,-0.02779892970893374,-0.00029029324650764465,-0.09096960723400116,0.07210156321525574,0.01817929744720459,0.06613776087760925,-0.1283811926841736,XArbitraryCorrectedZVertical,-0.6341443061828613,0.2795143127441406,0.6513413786888123,0.3090099692344666,0.9988342523574828,0.02779535017907619,-0.03946549445390701,0,0,0,-1,213262.33090175,automotive,2,2018-04-08 10:30:51.912 -0500,4
2018-04-08 10:31:49.997,1523201508.9991882,30.324697695065236,-97.75616614446864,205.6528,22.35155,183.91669502623031,3.0,12.0,-9999,1523201509.9885962,-1735.838134765625,-1362.732666015625,-1468.4320068359382,272.91812133789057,269.08529663085943,10,213320.41489466673,1.046234130859375,0.0302276611328125,-0.1658172607421875,213320.41489466673,-0.04031439994940149,0.04145529816039144,0.06008357735327769,213320.39614366673,2.2846601775775888,1.5292329630918189,-0.02281380755730441,-0.01829639077186584,-0.02563068270683289,0.05370704829692841,0.04203242063522339,-0.01451104879379272,-0.1214232444763184,XArbitraryCorrectedZVertical,-0.6330618262290955,0.2801114618778229,0.6530904173851013,0.3069905936717987,0.9988763928413392,0.022811828181147582,-0.04154058545827866,0,0,0,-1,213262.33090175,automotive,2,2018-04-08 10:30:51.912 -0500,4
2018-04-08 10:31:50.097,1523201508.9991882,30.324697695065236,-97.75616614446864,205.6528,22.35155,183.91669502623031,3.0,12.0,-9999,1523201509.9885962,-1735.838134765625,-1362.732666015625,-1468.4320068359382,272.91812133789057,269.08529663085943,10,213320.5148987917,1.062850952148438,0.0397796630859375,-0.1143035888671875,213320.5148987917,-0.035914857828590586,0.06098186158896143,-0.00968698214905422,213320.4961477917,2.287346013284171,1.533165095705272,-0.019992738693409992,-0.02046632021665573,0.06473281234502792,0.00295836222358048,0.1007916927337646,-0.0120263397693634,-0.0910930633544922,XArbitraryCorrectedZVertical,-0.6343097090721129,0.2807913422584534,0.6526706218719482,0.3046776056289673,0.9990922808647156,0.01999140717089176,-0.03761482983827591,0,0,0,-1,213262.33090175,automotive,2,2018-04-08 10:30:51.912 -0500,4
2018-04-08 10:31:50.197,1523201509.999186,30.32450732860642,-97.75619561998671,205.3426,21.82518,184.0312782797464,3.0,12.0,-9999,1523201510.113672,-1735.867431640625,-1362.5263671875,-1465.4296875,272.7357177734375,268.9028930664062,10,213320.61490479173,0.9496002197265624,0.064483642578125,-0.00665283203125,213320.61490479173,-0.03889839719780636,-0.02724653479649168,0.008939432831068978,213320.59615379173,2.290207419642858,1.5385894697407712,-0.01882116256213609,-0.022372098639607433,-0.01697321049869061,0.008687110617756844,-0.01068735122680664,0.007089376449584961,0.009383678436279295,XArbitraryCorrectedZVertical,-0.6363096237182617,0.2810912132263184,0.6515539884567261,0.3026138842105865,0.9993043541908264,0.01882005110383034,-0.03219558671116829,0,0,0,-1,213262.33090175,automotive,2,2018-04-08 10:30:51.912 -0500,4
2018-04-08 10:31:50.297,1523201509.999186,30.32450732860642,-97.75619561998671,205.3426,21.82518,184.0312782797464,3.0,12.0,-9999,1523201510.2137141,-1736.11279296875,-1361.1767578125,-1463.4244384765618,272.59780883789057,268.76498413085943,10,213320.71491079172,0.9266815185546876,0.063079833984375,-0.1412353515625,213320.71491079172,-0.02841805936001754,-0.006544718378869728,0.005566805626592631,213320.69615979173,2.292954441511501,1.534105944524789,-0.01703319789106019,-0.03724334388971329,0.0037485985085368156,0.03226715698838234,-0.1064056158065796,0.02070260047912598,-0.030614435672760013,XArbitraryCorrectedZVertical,-0.6349720358848572,0.2801287174224854,0.6536554098129272,0.3017831146717072,0.9991820454597472,0.01703237369656563,-0.03667683154344559,0,0,0,-1,213262.33090175,automotive,2,2018-04-08 10:30:51.912 -0500,4
2018-04-08 10:31:50.397,1523201509.999186,30.32450732860642,-97.75619561998671,205.3426,21.82518,184.0312782797464,3.0,12.0,-9999,1523201510.3386278,-1736.09619140625,-1361.349853515625,-1468.5679931640618,272.4347534179688,268.6019287109375,10,213320.8149167917,0.9730224609375,0.0872344970703125,-0.1094818115234375,213320.8149167917,-0.03481017860842572,0.04572541065222449,-0.01284149646025308,213320.79616579172,2.2954643416858653,1.531214763288124,-0.016069228839634433,-0.04247846826910973,0.04074358567595482,-0.004298694431781769,-0.03239774703979492,-0.02002054452896118,-0.07597345113754272,XArbitraryCorrectedZVertical,-0.6342368125915527,0.2792142629623413,0.6550911068916321,0.3010627031326294,0.9990878105163574,0.01606853678822517,-0.039566121995449066,0,0,0,-1,213262.33090175,automotive,2,2018-04-08 10:30:51.912 -0500,4
2018-04-08 10:31:50.498,1523201509.999186,30.32450732860642,-97.75619561998671,205.3426,21.82518,184.0312782797464,3.0,12.0,-9999,1523201510.4635901,-1736.1922607421882,-1360.774658203125,-1464.9237060546882,272.29244995117193,268.45962524414057,10,213320.9149227917,0.95989990234375,0.07012939453125,-0.0770263671875,213320.9149227917,-0.02731657593316076,-0.02615383980123217,0.006718090165833886,213320.8961707917,2.298056189717804,1.533040387316041,-0.01618615925334917,-0.02240077964961529,-0.007167002186179161,0.009717404842376707,-0.007152020931243896,0.01843675971031189,-0.0599600076675415,XArbitraryCorrectedZVertical,-0.6352131366729736,0.2786274552345276,0.6548842191696167,0.2999960780143738,0.999156415462494,0.01618545316159725,-0.037742026150226586,0,0,0,-1,213262.33090175,automotive,2,2018-04-08 10:30:51.912 -0500,4
2018-04-08 10:31:50.597,1523201509.999186,30.32450732860642,-97.75619561998671,205.3426,21.82518,184.0312782797464,3.0,12.0,-9999,1523201510.588544,-1735.9193115234382,-1362.267578125,-1466.6151123046882,272.15457153320307,268.32174682617193,10,213321.01492779172,0.9788360595703124,0.0527191162109375,-0.123870849609375,213321.01492779172,-0.01877528568505863,-0.1045615633509091,0.03272971716485582,213320.99617679173,2.3006666239538043,1.531561835197313,-0.01581844298279924,-0.017042672261595733,-0.07903635501861572,0.037862665951251984,-0.006383836269378662,0.0335138738155365,-0.09411174058914183,XArbitraryCorrectedZVertical,-0.6350384950637817,0.2776983082294464,0.6557978987693787,0.2992304563522339,0.9991053938865662,0.0158177837729454,-0.03921951726078987,0,0,0,-1,213262.33090175,automotive,2,2018-04-08 10:30:51.912 -0500,4
2018-04-08 10:31:50.697,1523201509.999186,30.32450732860642,-97.75619561998671,205.3426,21.82518,184.0312782797464,3.0,12.0,-9999,1523201510.688575,-1735.46875,-1364.754760742188,-1470.837890625,272.0665283203125,268.2337036132812,10,213321.11493379172,0.997100830078125,0.0039215087890625,-0.1247406005859375,213321.11493379172,-0.038901060358896435,-0.08166823167226091,0.05204535823509153,213321.09618279172,2.3028521071764607,1.5280600417564618,-0.01406524885131233,-0.006464008241891861,-0.08775793761014937,0.02926192991435528,0.01288312673568726,0.029224395751953118,-0.1508082151412964,XArbitraryCorrectedZVertical,-0.633938193321228,0.2770610749721527,0.6574872136116028,0.2984462976455688,0.9989882111549376,0.01406478509306908,-0.042719054967164986,0,0,0,-1,213262.33090175,automotive,2,2018-04-08 10:30:51.912 -0500,4
2018-04-08 10:31:50.797,1523201509.999186,30.32450732860642,-97.75619561998671,205.3426,21.82518,184.0312782797464,3.0,12.0,-9999,1523201510.7885869,-1735.3695068359382,-1365.19873046875,-1465.4171142578118,271.9920654296875,268.1592407226562,10,213321.2149397917,0.9197998046875,-0.0633697509765625,0.0334320068359375,213321.2149397917,-0.1159332612055474,0.03047535130210375,0.02310292245643739,213321.1961887917,2.3052122769467367,1.5293079849696842,-0.011625383641807891,-0.05158622190356255,-0.1564015746116638,0.04485607519745827,0.2306033372879028,0.04974573850631714,-0.2131497859954834,XArbitraryCorrectedZVertical,-0.6343225240707397,0.2773050963878632,0.6577911376953125,0.2967282235622406,0.9990719556808472,0.01162512134760618,-0.041473638266325,0,0,0,-1,213262.33090175,automotive,2,2018-04-08 10:30:51.912 -0500,4
2018-04-08 10:31:50.897,1523201509.999186,30.32450732860642,-97.75619561998671,205.3426,21.82518,184.0312782797464,3.0,12.0,-9999,1523201510.8885882,-1735.403076171875,-1364.986450195312,-1463.46533203125,271.9058227539062,268.072998046875,10,213321.31494579173,1.0921630859375,0.1232147216796875,-0.1154937744140625,213321.31494579173,-0.01869805401344633,-0.1263582052926626,0.02746731085085925,213321.2961947917,2.306779496690274,1.5353640851062131,-0.01070213136825985,-0.02647886425256729,-0.04313499853014946,-0.0008170023793354629,0.03458988666534424,-0.01689699292182922,-0.08835649490356445,XArbitraryCorrectedZVertical,-0.6363962292671204,0.278007984161377,0.6562306880950928,0.295080840587616,0.9993151426315308,0.01070192735642195,-0.03542280197143555,0,0,0,-1,213262.33090175,automotive,2,2018-04-08 10:30:51.912 -0500,4
2018-04-08 10:31:50.997,1523201509.999186,30.32450732860642,-97.75619561998671,205.3426,21.82518,184.0312782797464,3.0,12.0,-9999,1523201510.988632,-1735.3272705078118,-1365.341796875,-1464.482666015625,271.8569946289062,268.024169921875,10,213321.41495179172,1.122909545898438,-0.0161895751953125,-0.13018798828125,213321.41495179172,-0.01548361857772069,-0.1198462437952008,0.005985454549953089,213321.39620079173,2.308334344400058,1.5383935479004252,-0.01112078352146291,-0.007587825879454613,-0.05616774782538414,0.02484131418168545,0.1853101253509521,-0.03347468376159668,-0.1002953052520752,XArbitraryCorrectedZVertical,-0.6376659870147705,0.2778210639953613,0.6554349064826965,0.2942824363708496,0.9994128346443176,0.01112055405974388,-0.03239509090781212,0,0,0,-1,213262.33090175,automotive,2,2018-04-08 10:30:51.912 -0500,4
2018-04-08 10:31:51.097,1523201509.999186,30.32450732860642,-97.75619561998671,205.3426,21.82518,184.0312782797464,3.0,12.0,-9999,1523201510.988632,-1735.3272705078118,-1365.341796875,-1464.482666015625,271.8569946289062,268.024169921875,10,213321.51495766672,1.027877807617188,-0.072723388671875,-0.278717041015625,213321.51495766672,0.0231636425292912,-0.043529634333454165,0.03112329839532002,213321.49620666672,2.309275286653704,1.5349239471382061,-0.01313384165005655,0.05551087111234665,0.03966608271002769,-0.03599422425031662,-0.06567668914794922,0.0404554009437561,-0.08576619625091553,XArbitraryCorrectedZVertical,-0.6369472742080688,0.2763464748859406,0.6563924551010132,0.2950926721096039,0.9992704391479492,0.01313346438109875,-0.03586159273982048,0,0,0,-1,213262.33090175,automotive,2,2018-04-08 10:30:51.912 -0500,4
2018-04-08 10:31:51.197,1523201510.9991882,30.32432133727584,-97.75622046948692,204.3628,20.44574,183.96068144448518,3.0,12.0,-9999,1523201511.113683,-1735.9013671875,-1362.202270507812,-1460.8692626953118,271.80636596679693,267.97354125976557,10,213321.6149636667,0.9341888427734376,0.0679168701171875,-0.2725677490234375,213321.6149636667,0.02185842727904336,0.09479362110471644,-0.003771835051879225,213321.59621266671,2.310071540468184,1.528111006726784,-0.0136263687969725,0.07528712600469589,0.0996200144290924,-0.01923803053796291,-0.2303038835525513,0.09608474373817444,-0.2181043028831482,XArbitraryCorrectedZVertical,-0.6348879933357239,0.274923712015152,0.6586060523986816,0.2959252595901489,0.9989959001541138,0.013625946827232841,-0.04266837611794472,0,0,0,-1,213262.33090175,automotive,2,2018-04-08 10:30:51.912 -0500,4
